"Time (s)","Gyroscope x (rad/s)","Gyroscope y (rad/s)","Gyroscope z (rad/s)","Absolute (rad/s)"
3.179853000E-3,-4.031710699E-2,2.443460980E-3,-6.169738993E-2,7.374284740E-2
6.038961000E-3,-4.703662544E-2,-5.497787148E-3,-5.192354694E-2,7.027605939E-2
8.370430000E-3,-4.948008433E-2,-7.941247895E-3,-4.459316283E-2,6.708123683E-2
1.029896100E-2,-5.070181563E-2,-7.330383174E-3,-4.337143153E-2,6.712294465E-2
1.242646800E-2,-5.253441259E-2,-5.497787148E-3,-3.481931984E-2,6.326511839E-2
1.429630700E-2,-5.253441259E-2,-1.832595794E-3,-2.626720630E-2,5.876384127E-2
1.652981400E-2,-4.948008433E-2,-1.221730490E-3,-2.260201424E-2,5.441160187E-2
1.863012200E-2,-4.520402849E-2,-1.832595794E-3,-1.588249579E-2,4.794805806E-2
2.059219900E-2,-4.092797264E-2,-4.886921961E-3,-1.099557430E-2,4.266009382E-2
2.240007700E-2,-3.909537569E-2,-4.886921961E-3,-9.162978269E-3,4.045108870E-2
2.466050600E-2,-3.176499158E-2,-7.330383174E-3,-9.773843922E-3,3.403347224E-2
2.666242300E-2,-2.809980139E-2,-1.221730467E-2,-1.038470957E-2,3.235279840E-2
2.881185300E-2,-2.015855350E-2,-1.038470957E-2,-1.221730467E-2,2.575795033E-2
3.059815300E-2,-1.710422710E-2,-1.099557430E-2,-9.773843922E-3,2.256070175E-2
3.286727600E-2,-1.038470957E-2,-8.552113548E-3,-1.221730467E-2,1.817259950E-2
3.486973000E-2,-6.719517522E-3,6.108652335E-3,-1.404990070E-2,1.672923365E-2
3.697066000E-2,-3.054326167E-3,1.954768784E-2,-2.138028294E-2,2.913001042E-2
3.911312200E-2,6.108652451E-4,2.687807009E-2,-2.199114859E-2,3.473347700E-2
4.101446800E-2,3.665191587E-3,2.993239649E-2,-2.748893574E-2,4.080470043E-2
4.295976900E-2,7.330383174E-3,3.054326214E-2,-3.115412779E-2,4.424031033E-2
4.508239100E-2,8.552113548E-3,2.993239649E-2,-3.481931984E-2,4.670623128E-2
4.694773000E-2,1.404990070E-2,2.748893574E-2,-4.214970022E-2,5.224594268E-2
4.923239100E-2,1.832595654E-2,2.993239649E-2,-4.886921868E-2,6.016634920E-2
5.115761500E-2,2.199114859E-2,3.115412779E-2,-5.131268129E-2,6.393106878E-2
5.328739100E-2,2.321287990E-2,3.054326214E-2,-5.314527452E-2,6.554501399E-2
5.517950000E-2,2.871066704E-2,2.809980139E-2,-5.436700583E-2,6.759935327E-2
5.742100600E-2,2.993239649E-2,2.260201424E-2,-5.558873713E-2,6.705898227E-2
5.952158300E-2,3.359758854E-2,1.649336144E-2,-5.681046844E-2,6.803130347E-2
6.148481400E-2,3.481931984E-2,1.160643995E-2,-5.742133409E-2,6.814913126E-2
6.330653800E-2,3.970624134E-2,9.162978269E-3,-5.619960278E-2,6.941859351E-2
6.555319900E-2,4.642575979E-2,6.719517522E-3,-5.619960278E-2,7.320449741E-2
6.765362200E-2,4.886921868E-2,5.497787148E-3,-5.742133409E-2,7.560182409E-2
6.970412200E-2,6.047565863E-2,9.162978269E-3,-6.047565863E-2,8.601494488E-2
7.154703800E-2,6.841690838E-2,1.221730467E-2,-6.169738993E-2,9.293386794E-2
7.375966000E-2,8.002334833E-2,1.221730467E-2,-6.414084882E-2,1.032813986E-1
7.575042300E-2,8.613199741E-2,1.038470957E-2,-6.719517708E-2,1.097349306E-1
7.786281400E-2,9.712757170E-2,1.160643995E-2,-6.902777404E-2,1.197217951E-1
8.000596800E-2,1.044579595E-1,1.038470957E-2,-7.024950534E-2,1.263103341E-1
8.190708300E-2,1.099557430E-1,1.282817032E-2,-7.513642311E-2,1.337920380E-1
8.384661500E-2,1.117883399E-1,1.099557430E-2,-7.696902007E-2,1.361681521E-1
8.597466000E-2,1.130100712E-1,1.404990070E-2,-8.063421398E-2,1.395369212E-1
8.784038400E-2,1.148426682E-1,1.832595654E-2,-8.552113175E-2,1.443556133E-1
9.012581400E-2,1.142318025E-1,2.138028294E-2,-8.552113175E-2,1.442909740E-1
9.212311500E-2,1.093448773E-1,2.993239649E-2,-8.674286306E-2,1.427465406E-1
9.418189100E-2,1.069014147E-1,3.543018550E-2,-9.101892263E-2,1.448021229E-1
9.608892300E-2,1.026253626E-1,4.214970022E-2,-9.224065393E-2,1.442806311E-1
9.828562200E-2,1.007927656E-1,4.642575979E-2,-9.346238524E-2,1.450853205E-1
1.003865830E-1,9.529497474E-2,5.558873713E-2,-9.712757170E-2,1.469864112E-1
1.023470060E-1,9.101892263E-2,6.658431143E-2,-9.834930301E-2,1.496345555E-1
1.042554230E-1,8.979719132E-2,6.902777404E-2,-1.014036313E-1,1.520232403E-1
1.064165060E-1,8.552113175E-2,7.880161703E-2,-1.075122803E-1,1.583743958E-1
1.083936150E-1,7.757988572E-2,9.712757170E-2,-1.123992056E-1,1.675887385E-1
1.105688520E-1,7.880161703E-2,1.331686229E-1,-1.111774743E-1,1.905361061E-1
1.123951530E-1,7.513642311E-2,1.466076523E-1,-1.111774743E-1,1.987453561E-1
1.146254680E-1,7.086037099E-2,1.612684280E-1,-1.105666086E-1,2.079751739E-1
1.166630760E-1,6.475171447E-2,1.673770845E-1,-1.111774743E-1,2.111120644E-1
1.187299290E-1,5.681046844E-2,1.649336219E-1,-1.136209369E-1,2.081832036E-1
1.208743140E-1,5.497787148E-2,1.588249654E-1,-1.142318025E-1,2.032162412E-1
1.227761980E-1,4.520402849E-2,1.459967941E-1,-1.136209369E-1,1.904420788E-1
1.247173460E-1,3.726277873E-2,1.282816976E-1,-1.148426682E-1,1.761634101E-1
1.268454680E-1,3.604105115E-2,1.203404516E-1,-1.148426682E-1,1.702046418E-1
1.287150000E-1,3.054326214E-2,1.117883399E-1,-1.093448773E-1,1.593293005E-1
1.309974290E-1,2.993239649E-2,1.081231460E-1,-1.087340117E-1,1.562358741E-1
1.329343460E-1,2.871066704E-2,9.651670605E-2,-1.062905490E-1,1.464153604E-1
1.350532750E-1,2.748893574E-2,8.918632567E-2,-1.038470939E-1,1.396211344E-1
1.369178070E-1,2.504547499E-2,7.269296050E-2,-1.001819000E-1,1.262852145E-1
1.391568140E-1,2.076941915E-2,5.803219974E-2,-9.957103431E-2,1.171046363E-1
1.412558910E-1,2.015855350E-2,4.214970022E-2,-9.407325089E-2,1.050368556E-1
1.431904680E-1,1.954768784E-2,3.604105115E-2,-9.468411654E-2,1.031801890E-1
1.450410760E-1,1.832595654E-2,2.199114859E-2,-9.468411654E-2,9.891679951E-2
1.472579290E-1,1.649336144E-2,1.343903504E-2,-9.040805697E-2,9.287763671E-2
1.492556530E-1,1.710422710E-2,7.941247895E-3,-9.101892263E-2,9.295193532E-2
1.514082750E-1,1.588249579E-2,-1.832595794E-3,-9.040805697E-2,9.181083185E-2
1.532571530E-1,1.954768784E-2,-8.552113548E-3,-9.101892263E-2,9.348633602E-2
1.554636210E-1,2.076941915E-2,-1.588249579E-2,-8.979719132E-2,9.352624238E-2
1.575092300E-1,2.321287990E-2,-1.832595654E-2,-9.162978828E-2,9.628445657E-2
1.595664670E-1,2.382374369E-2,-2.260201424E-2,-9.285151958E-2,9.848769720E-2
1.617245830E-1,2.687807009E-2,-2.565634064E-2,-9.529497474E-2,1.022829931E-1
1.636255440E-1,2.748893574E-2,-2.932153270E-2,-9.834930301E-2,1.062449023E-1
1.654881920E-1,3.481931984E-2,-2.993239649E-2,-1.020144969E-1,1.118717613E-1
1.676938140E-1,3.359758854E-2,-2.993239649E-2,-1.038470939E-1,1.131766991E-1
1.695083070E-1,3.848451003E-2,-1.038470957E-2,-1.014036313E-1,1.089568545E-1
1.718448520E-1,4.153883830E-2,-6.108652451E-4,-1.014036313E-1,1.095835055E-1
1.737041920E-1,4.153883830E-2,1.160643995E-2,-1.026253626E-1,1.113200322E-1
1.758998140E-1,4.276056588E-2,2.504547499E-2,-1.105666086E-1,1.211640077E-1
1.777159610E-1,4.337143153E-2,3.115412779E-2,-1.111774743E-1,1.233373080E-1
1.800026600E-1,4.520402849E-2,3.604105115E-2,-1.185078546E-1,1.318577763E-1
1.821025060E-1,4.886921868E-2,3.787364438E-2,-1.264491081E-1,1.407550724E-1
1.840641210E-1,5.192354694E-2,4.031710699E-2,-1.270599663E-1,1.430585855E-1
1.858972300E-1,5.192354694E-2,4.153883830E-2,-1.282816976E-1,1.444912584E-1
1.881320440E-1,5.742133409E-2,4.276056588E-2,-1.258382350E-1,1.447789246E-1
1.900649610E-1,6.047565863E-2,3.726277873E-2,-1.264491081E-1,1.450351575E-1
1.922828520E-1,6.597344577E-2,3.054326214E-2,-1.203404516E-1,1.405959128E-1
1.940723840E-1,6.536258012E-2,2.687807009E-2,-1.172861308E-1,1.369333196E-1
1.963384290E-1,7.330382615E-2,1.771509275E-2,-1.111774743E-1,1.343417516E-1
1.982743070E-1,7.574728876E-2,1.221730467E-2,-1.032362282E-1,1.286259426E-1
2.004423900E-1,7.452555746E-2,7.941247895E-3,-9.957103431E-2,1.246254910E-1
2.025853520E-1,8.002334833E-2,-2.443460980E-3,-9.285151958E-2,1.226014334E-1
2.044870440E-1,8.368854225E-2,-1.466076635E-2,-8.613199741E-2,1.209852518E-1
2.063572690E-1,8.429940045E-2,-2.565634064E-2,-8.063421398E-2,1.194425100E-1
2.085562750E-1,8.674286306E-2,-3.237585723E-2,-7.941248268E-2,1.219789442E-1
2.103802690E-1,8.857546002E-2,-4.276056588E-2,-7.330382615E-2,1.226683702E-1
2.127077750E-1,8.491026610E-2,-5.864306539E-2,-7.147123665E-2,1.255264915E-1
2.145815760E-1,8.857546002E-2,-7.452555746E-2,-6.902777404E-2,1.347757561E-1
2.167643520E-1,8.674286306E-2,-8.368854225E-2,-6.841690838E-2,1.385964276E-1
2.185857300E-1,8.796459436E-2,-9.957103431E-2,-6.658431143E-2,1.486123523E-1
2.208673130E-1,8.246681094E-2,-1.105666086E-1,-6.414084882E-2,1.521177121E-1
2.229673900E-1,8.185594529E-2,-1.142318025E-1,-6.291911751E-2,1.539743999E-1
2.249293520E-1,7.635815442E-2,-1.130100712E-1,-6.536258012E-2,1.512418951E-1
2.267784990E-1,7.208210230E-2,-1.166752651E-1,-7.086037099E-2,1.543701368E-1
2.289977750E-1,6.536258012E-2,-1.178969890E-1,-7.147123665E-2,1.525781916E-1
2.309364230E-1,6.291911751E-2,-1.209513173E-1,-7.452555746E-2,1.553772673E-1
2.331489670E-1,5.681046844E-2,-1.252273768E-1,-7.757988572E-2,1.578859205E-1
2.349373460E-1,4.764748737E-2,-1.362229437E-1,-8.002334833E-2,1.650173012E-1
2.372055830E-1,4.398229718E-2,-1.404990107E-1,-7.880161703E-2,1.669853566E-1
2.391200760E-1,3.359758854E-2,-1.582140923E-1,-8.307767659E-2,1.818306830E-1
2.413091210E-1,2.687807009E-2,-1.722639948E-1,-8.491026610E-2,1.939254183E-1
2.434516980E-1,1.771509275E-2,-1.863138974E-1,-8.674286306E-2,2.062789789E-1
2.453521980E-1,1.527163107E-2,-1.905899495E-1,-8.857546002E-2,2.107210566E-1
2.472198070E-1,4.886921961E-3,-2.058615834E-1,-8.735372871E-2,2.236817995E-1
2.494202750E-1,-4.276056774E-3,-2.107485086E-1,-8.796459436E-2,2.284096942E-1
2.512448460E-1,-7.330383174E-3,-2.156354338E-1,-8.674286306E-2,2.325439724E-1
2.535709290E-1,-1.527163107E-2,-2.247984111E-1,-8.613199741E-2,2.412183022E-1
2.554385380E-1,-2.382374369E-2,-2.296853364E-1,-8.613199741E-2,2.464582023E-1
2.576267750E-1,-2.993239649E-2,-2.339613885E-1,-8.674286306E-2,2.513129602E-1
2.594749230E-1,-3.176499158E-2,-2.370157093E-1,-8.735372871E-2,2.545901315E-1
2.617306980E-1,-3.604105115E-2,-2.425135076E-1,-8.796459436E-2,2.604794207E-1
2.638314670E-1,-3.909537569E-2,-2.419026345E-1,-9.040805697E-2,2.611875758E-1
2.657916980E-1,-4.153883830E-2,-2.431243658E-1,-8.979719132E-2,2.624851765E-1
2.675839220E-1,-4.276056588E-2,-2.467895597E-1,-9.040805697E-2,2.662840017E-1
2.698611980E-1,-4.276056588E-2,-2.498438805E-1,-8.613199741E-2,2.677109479E-1
2.717768460E-1,-3.970624134E-2,-2.492330223E-1,-8.429940045E-2,2.660828329E-1
2.740126980E-1,-3.543018550E-2,-2.461786866E-1,-8.124507964E-2,2.616486322E-1
2.757906920E-1,-2.687807009E-2,-2.474004179E-1,-7.635815442E-2,2.603074436E-1
2.780686980E-1,-2.015855350E-2,-2.455678284E-1,-7.269296050E-2,2.568933478E-1
2.799767690E-1,-9.773843922E-3,-2.455678284E-1,-6.658431143E-2,2.546223810E-1
2.821722750E-1,-4.276056774E-3,-2.455678284E-1,-6.108652428E-2,2.530877446E-1
2.843151980E-1,8.552113548E-3,-2.437352389E-1,-5.314527452E-2,2.496085446E-1
2.862170050E-1,2.443460934E-2,-2.437352389E-1,-4.459316283E-2,2.489828649E-1
2.881298070E-1,3.726277873E-2,-2.382374406E-1,-3.848451003E-2,2.441856881E-1
2.902856210E-1,4.886921868E-2,-2.339613885E-1,-3.481931984E-2,2.415336765E-1
2.921071150E-1,6.047565863E-2,-2.278527319E-1,-2.932153270E-2,2.375582561E-1
2.944361210E-1,7.147123665E-2,-2.217440903E-1,-2.626720630E-2,2.344537169E-1
2.963559610E-1,7.757988572E-2,-2.156354338E-1,-2.504547499E-2,2.305310278E-1
2.984917750E-1,8.368854225E-2,-2.034181207E-1,-2.015855350E-2,2.208824828E-1
3.003528460E-1,8.735372871E-2,-1.905899495E-1,-1.893682219E-2,2.105084464E-1
3.026252360E-1,9.590584040E-2,-1.789835095E-1,-1.954768784E-2,2.039978897E-1
3.047253130E-1,9.529497474E-2,-1.722639948E-1,-2.260201424E-2,1.981586919E-1
3.066871590E-1,9.834930301E-2,-1.655444801E-1,-2.260201424E-2,1.938773100E-1
3.085083460E-1,9.896016866E-2,-1.576032341E-1,-2.871066704E-2,1.882981592E-1
3.107563130E-1,9.957103431E-2,-1.496619880E-1,-2.993239649E-2,1.822335038E-1
3.126706150E-1,1.007927656E-1,-1.453859210E-1,-3.543018550E-2,1.804204691E-1
3.149066210E-1,1.020144969E-1,-1.362229437E-1,-3.787364438E-2,1.743503969E-1
3.166796920E-1,1.026253626E-1,-1.258382350E-1,-4.092797264E-2,1.674584288E-1
3.189617750E-1,1.020144969E-1,-1.221730486E-1,-4.214970022E-2,1.646505652E-1
3.208764220E-1,9.957103431E-2,-1.160643995E-1,-4.581489414E-2,1.596381540E-1
3.230644670E-1,1.007927656E-1,-1.087340117E-1,-5.009094998E-2,1.564971890E-1
3.252073130E-1,9.712757170E-2,-1.087340117E-1,-5.681046844E-2,1.564745340E-1
3.271088510E-1,9.529497474E-2,-1.099557430E-1,-5.864306539E-2,1.568770434E-1
3.289765380E-1,9.346238524E-2,-1.191187203E-1,-6.658431143E-2,1.654024108E-1
3.311770820E-1,9.040805697E-2,-1.368338168E-1,-7.635815442E-2,1.809079266E-1
3.329920760E-1,8.857546002E-2,-1.423316002E-1,-7.819075137E-2,1.849802425E-1
3.353278510E-1,8.857546002E-2,-1.600466967E-1,-8.552113175E-2,2.019267719E-1
3.371875380E-1,8.613199741E-2,-1.740965992E-1,-9.162978828E-2,2.147658375E-1
3.393833900E-1,8.552113175E-2,-1.869247705E-1,-9.712757170E-2,2.273510479E-1
3.412114220E-1,8.307767659E-2,-1.912008226E-1,-9.529497474E-2,2.292177723E-1
3.434867740E-1,8.063421398E-2,-2.015855312E-1,-9.590584040E-2,2.373531822E-1
3.455863510E-1,7.574728876E-2,-2.144137025E-1,-1.001819000E-1,2.484900414E-1
3.475473510E-1,7.513642311E-2,-2.180788964E-1,-9.834930301E-2,2.507518146E-1
3.493451530E-1,7.635815442E-2,-2.339613885E-1,-9.712757170E-2,2.645794101E-1
3.516151210E-1,7.391469181E-2,-2.522873580E-1,-1.007927656E-1,2.815519034E-1
3.535243840E-1,7.391469181E-2,-2.712241709E-1,-1.032362282E-1,2.994722882E-1
3.557652360E-1,7.024950534E-2,-2.797762752E-1,-1.032362282E-1,3.063779952E-1
3.575417300E-1,7.147123665E-2,-3.017674387E-1,-1.062905490E-1,3.278252667E-1
3.598206210E-1,7.147123665E-2,-3.133738637E-1,-1.020144969E-1,3.372214016E-1
3.617286530E-1,7.269296050E-2,-2.962696552E-1,-9.834930301E-2,3.205192046E-1
3.639233130E-1,7.086037099E-2,-2.895501256E-1,-9.896016866E-2,3.140916783E-1
3.660659670E-1,7.635815442E-2,-2.791654170E-1,-1.014036313E-1,3.066701717E-1
3.679667740E-1,7.208210230E-2,-2.761110961E-1,-1.099557430E-1,3.058160105E-1
3.698296920E-1,7.208210230E-2,-2.779437006E-1,-1.178969890E-1,3.104001130E-1
3.720349280E-1,6.963863969E-2,-2.883284092E-1,-1.295034289E-1,3.236571485E-1
3.738439220E-1,6.475171447E-2,-3.109304011E-1,-1.453859210E-1,3.492958128E-1
3.761858510E-1,5.864306539E-2,-3.353650272E-1,-1.631010175E-1,3.775058311E-1
3.780461530E-1,5.497787148E-2,-3.530801237E-1,-1.716531366E-1,3.964252002E-1
3.802410050E-1,4.703662544E-2,-3.830125034E-1,-1.899790913E-1,4.301198403E-1
3.820750760E-1,3.481931984E-2,-4.263839424E-1,-2.119702399E-1,4.774379896E-1
3.843437740E-1,3.359758854E-2,-4.508185387E-1,-2.199114859E-1,5.027198170E-1
3.864438900E-1,2.809980139E-2,-4.972442985E-1,-2.400700450E-1,5.528789358E-1
3.883775440E-1,2.809980139E-2,-5.479460955E-1,-2.632829249E-1,6.085658723E-1
3.901714990E-1,2.687807009E-2,-6.017022729E-1,-2.877175212E-1,6.674948898E-1
3.924453900E-1,2.932153270E-2,-6.267477274E-1,-2.987131178E-1,6.949115000E-1
3.943555760E-1,3.115412779E-2,-6.750060916E-1,-3.182607889E-1,7.469228428E-1
3.965959670E-1,3.604105115E-2,-7.238753438E-1,-3.353650272E-1,7.986013850E-1
3.983707690E-1,4.337143153E-2,-7.440338731E-1,-3.469714522E-1,8.221050262E-1
4.006521590E-1,4.886921868E-2,-7.898487449E-1,-3.665191531E-1,8.721155485E-1
4.025617690E-1,5.497787148E-2,-8.289441466E-1,-3.897320330E-1,9.176393748E-1
4.047561590E-1,6.108652428E-2,-8.594874144E-1,-4.043927789E-1,9.518317596E-1
4.068992740E-1,6.902777404E-2,-8.930850029E-1,-4.208861589E-1,9.897023870E-1
4.088003900E-1,7.330382615E-2,-9.083566070E-1,-4.288274050E-1,1.007163403E0
4.106641530E-1,8.246681094E-2,-9.431759119E-1,-4.447098970E-1,1.046015520E0
4.128689280E-1,7.880161703E-2,-9.718865752E-1,-4.508185387E-1,1.074248837E0
4.146794990E-1,8.002334833E-2,-9.847147465E-1,-4.502076805E-1,1.085704298E0
4.170196590E-1,8.002334833E-2,-1.014647126E0,-4.459316432E-1,1.111200953E0
4.188742690E-1,8.063421398E-2,-1.048855662E0,-4.398229718E-1,1.140194862E0
4.210754280E-1,8.368854225E-2,-1.067792416E0,-4.337143302E-1,1.155548586E0
4.228979220E-1,8.246681094E-2,-1.097113967E0,-4.263839424E-1,1.179941989E0
4.251795430E-1,8.185594529E-2,-1.125213742E0,-4.147774875E-1,1.202017773E0
4.272794280E-1,8.002334833E-2,-1.150870085E0,-4.056145251E-1,1.222877276E0
4.292398130E-1,7.819075137E-2,-1.164309144E0,-4.019493461E-1,1.234217506E0
4.310318070E-1,7.024950534E-2,-1.181413412E0,-3.872885704E-1,1.245257034E0
4.333084280E-1,5.986479297E-2,-1.196684957E0,-3.738495409E-1,1.255150253E0
4.352140380E-1,4.459316283E-2,-1.207069755E0,-3.610213697E-1,1.260691228E0
4.374591590E-1,4.214970022E-2,-1.211956620E0,-3.506366611E-1,1.262363464E0
4.392344220E-1,2.993239649E-2,-1.229671717E0,-3.384193480E-1,1.275741406E0
4.415145820E-1,1.954768784E-2,-1.243110776E0,-3.249803185E-1,1.285036467E0
4.434169220E-1,9.773843922E-3,-1.248608589E0,-3.213151097E-1,1.289326311E0
4.456174280E-1,-6.108652451E-4,-1.266323686E0,-3.127630055E-1,1.304375999E0
4.477608130E-1,-9.773843922E-3,-1.284038782E0,-3.121521473E-1,1.321472696E0
4.496619660E-1,-2.321287990E-2,-1.299310327E0,-3.103195429E-1,1.336055531E0
4.515434990E-1,-2.871066704E-2,-1.304808140E0,-3.133738637E-1,1.342218970E0
4.537303130E-1,-4.276056588E-2,-1.308473349E0,-3.170390725E-1,1.347013268E0
4.555514610E-1,-5.864306539E-2,-1.304197311E0,-3.225368559E-1,1.344767511E0
4.578812360E-1,-7.330382615E-2,-1.294423461E0,-3.274237812E-1,1.337203006E0
4.597398450E-1,-9.529497474E-2,-1.277930140E0,-3.365867436E-1,1.324944230E0
4.619372360E-1,-1.172861308E-1,-1.250441194E0,-3.469714522E-1,1.302976747E0
4.637533450E-1,-1.356120855E-1,-1.210124016E0,-3.579670191E-1,1.269224629E0
4.660396970E-1,-1.453859210E-1,-1.186300278E0,-3.634648323E-1,1.249220597E0
4.681400050E-1,-1.649336219E-1,-1.134376764E0,-3.720169365E-1,1.205159883E0
4.701020050E-1,-1.832595766E-1,-1.076955438E0,-3.793473244E-1,1.156426167E0
4.718972690E-1,-1.960877478E-1,-1.052520871E0,-3.824016452E-1,1.136873611E0
4.741705820E-1,-2.070833147E-1,-1.005484223E0,-3.866777122E-1,1.096996662E0
4.761291530E-1,-2.168571651E-1,-9.651671052E-1,-3.946189582E-1,1.065034597E0
4.783213890E-1,-2.247984111E-1,-9.266825914E-1,-4.037819207E-1,1.035526335E0
4.801374220E-1,-2.272418737E-1,-9.059131742E-1,-4.050036669E-1,1.018010569E0
4.823770430E-1,-2.266310006E-1,-8.747590184E-1,-4.172209501E-1,9.953081292E-1
4.842788450E-1,-2.235766798E-1,-8.472700715E-1,-4.245513380E-1,9.737026982E-1
4.864797350E-1,-2.217440903E-1,-8.258898258E-1,-4.422664344E-1,9.627377862E-1
4.886225820E-1,-2.199114859E-1,-8.136724830E-1,-4.471533597E-1,9.541331659E-1
4.905234660E-1,-2.180788964E-1,-7.984008789E-1,-4.599815309E-1,9.468819236E-1
4.923857680E-1,-2.186897546E-1,-7.880161405E-1,-4.648684561E-1,9.406898149E-1
4.945921590E-1,-2.217440903E-1,-7.861835957E-1,-4.550946057E-1,9.350754984E-1
4.964040380E-1,-2.321287990E-1,-7.794640660E-1,-4.410447180E-1,9.251856316E-1
4.987433510E-1,-2.309070677E-1,-7.281513810E-1,-4.159992337E-1,8.698148481E-1
5.006281530E-1,-2.125810981E-1,-6.566801667E-1,-3.842342496E-1,7.899718496E-1
5.028007740E-1,-2.064724565E-1,-6.206390858E-1,-3.652974069E-1,7.491768453E-1
5.046172300E-1,-1.881465018E-1,-5.485569835E-1,-3.280346394E-1,6.662736636E-1
5.069050050E-1,-1.649336219E-1,-4.728097022E-1,-2.864958048E-1,5.769159040E-1
5.090053890E-1,-1.508837193E-1,-4.111123085E-1,-2.467895597E-1,5.026771466E-1
5.109672740E-1,-1.447750628E-1,-3.787364662E-1,-2.272418737E-1,4.648010314E-1
5.127457300E-1,-1.386664063E-1,-3.249803185E-1,-1.893682331E-1,4.008751768E-1
5.150363890E-1,-1.350012124E-1,-2.773328125E-1,-1.606575549E-1,3.477781853E-1
5.169461150E-1,-1.325577646E-1,-2.547308207E-1,-1.453859210E-1,3.218639744E-1
5.191885430E-1,-1.368338168E-1,-2.021963894E-1,-1.246165112E-1,2.741097375E-1
5.209526150E-1,-1.411098689E-1,-1.423316002E-1,-1.087340117E-1,2.280205359E-1
5.232456580E-1,-1.521054506E-1,-7.635815442E-2,-1.001819000E-1,1.974918959E-1
5.251527300E-1,-1.631010175E-1,-3.970624134E-2,-9.590584040E-2,1.933299194E-1
5.273502740E-1,-1.722639948E-1,3.420845419E-2,-9.224065393E-2,1.983770160E-1
5.294939280E-1,-1.771509200E-1,8.796459436E-2,-8.735372871E-2,2.162195464E-1
5.313956580E-1,-1.783726513E-1,1.123992056E-1,-8.246681094E-2,2.263871884E-1
5.332669610E-1,-1.875356287E-1,1.551597714E-1,-7.696902007E-2,2.552810153E-1
5.354638510E-1,-1.979203373E-1,2.021963894E-1,-6.230825558E-2,2.897208286E-1
5.372883070E-1,-2.034181207E-1,2.541199327E-1,-4.337143153E-2,3.283853728E-1
5.396150810E-1,-2.113593817E-1,2.797762752E-1,-3.054326214E-2,3.519665371E-1
5.415089220E-1,-2.138028294E-1,3.237585723E-1,-4.276056774E-3,3.880071490E-1
5.436705040E-1,-2.193006277E-1,3.518583775E-1,2.382374369E-2,4.152886392E-1
5.455212300E-1,-2.199114859E-1,3.579670191E-1,5.375614017E-2,4.235459491E-1
5.478030430E-1,-2.174680233E-1,3.561344445E-1,6.291911751E-2,4.219986956E-1
5.499041200E-1,-2.070833147E-1,3.396410644E-1,7.819075137E-2,4.054051621E-1
5.518654280E-1,-1.936442852E-1,3.084869385E-1,7.941248268E-2,3.727849820E-1
5.536493070E-1,-1.881465018E-1,2.883284092E-1,6.414084882E-2,3.502091178E-1
5.559341200E-1,-1.692096740E-1,2.376265824E-1,-5.497787148E-3,2.917679422E-1
5.578382680E-1,-1.466076523E-1,1.808161139E-1,-7.757988572E-2,2.453709629E-1
5.600846200E-1,-1.209513173E-1,1.050688252E-1,-1.716531366E-1,2.348051926E-1
5.618549990E-1,-1.069014147E-1,6.902777404E-2,-2.205223590E-1,2.546033324E-1
5.641405430E-1,-7.269296050E-2,-8.552113548E-3,-3.280346394E-1,3.361013683E-1
5.660419220E-1,-4.153883830E-2,-8.674286306E-2,-4.386012554E-1,4.490221160E-1
5.682454270E-1,-3.665191587E-3,-1.569923609E-1,-5.479460955E-1,5.700043496E-1
5.703888510E-1,1.649336144E-2,-1.857030392E-1,-6.047565937E-1,6.328413603E-1
5.722901580E-1,4.642575979E-2,-2.498438805E-1,-7.159340382E-1,7.596965597E-1
5.741511920E-1,8.002334833E-2,-2.974913716E-1,-8.203920126E-1,8.763263700E-1
5.763595040E-1,9.468411654E-2,-3.194825351E-1,-8.704829812E-1,9.320808939E-1
5.781734220E-1,1.240056455E-1,-3.506366611E-1,-9.694431424E-1,1.038336879E0
5.805116970E-1,1.502728462E-1,-3.720169365E-1,-1.059851170E0,1.133253295E0
5.823631530E-1,1.685988009E-1,-3.781255782E-1,-1.149037480E0,1.221348288E0
5.845690430E-1,1.857030392E-1,-3.726277947E-1,-1.188132882E0,1.258966575E0
5.864368070E-1,2.028072625E-1,-3.561344445E-1,-1.263880134E0,1.328666821E0
5.886731200E-1,2.156354338E-1,-3.268128932E-1,-1.332297087E0,1.388639923E0
5.907736580E-1,2.376265824E-1,-2.901609838E-1,-1.393994451E0,1.443565141E0
5.927350810E-1,2.309070677E-1,-2.736676335E-1,-1.426981211E0,1.471219706E0
5.945052680E-1,2.492330223E-1,-2.394591719E-1,-1.495398164E0,1.534820336E0
5.968043500E-1,2.535090744E-1,-1.918116808E-1,-1.554652095E0,1.586821259E0
5.987171530E-1,2.706133127E-1,-1.637118906E-1,-1.588249683E0,1.619435150E0
6.009570810E-1,2.663372457E-1,-1.020144969E-1,-1.646281838E0,1.670804111E0
6.027283070E-1,2.638937831E-1,-4.642575979E-2,-1.708590150E0,1.729472631E0
6.050141580E-1,2.583959997E-1,1.466076635E-2,-1.762957096E0,1.781853292E0
6.069378450E-1,2.559525371E-1,4.214970022E-2,-1.790446043E0,1.809139390E0
6.091191200E-1,2.351831198E-1,9.224065393E-2,-1.853976011E0,1.871108358E0
6.112636200E-1,2.302961946E-1,1.484402567E-1,-1.906510472E0,1.926097876E0
6.131654270E-1,2.095267773E-1,1.643227488E-1,-1.931555867E0,1.949823455E0
6.150386530E-1,2.021963894E-1,2.162462920E-1,-1.990198970E0,2.012097855E0
6.172345810E-1,1.765400618E-1,2.742784917E-1,-2.039679050E0,2.065595728E0
6.190552300E-1,1.606575549E-1,3.329215646E-1,-2.079385281E0,2.111987397E0
6.213870810E-1,1.557706445E-1,3.561344445E-1,-2.094046116E0,2.129818155E0
6.232468450E-1,1.386664063E-1,4.086688459E-1,-2.116647959E0,2.160193783E0
6.254437730E-1,1.466076523E-1,4.624249935E-1,-2.131919622E0,2.186415321E0
6.272667300E-1,1.374446750E-1,4.807509482E-1,-2.138639212E0,2.196312863E0
6.295469270E-1,1.478293836E-1,5.357288122E-1,-2.150856495E0,2.221495566E0
6.316476960E-1,1.484402567E-1,5.711590052E-1,-2.153300047E0,2.232701998E0
6.335818120E-1,1.557706445E-1,5.662720799E-1,-2.158186913E0,2.236671480E0
6.353656910E-1,1.527163088E-1,5.619960427E-1,-2.161241293E0,2.238331019E0
6.376505430E-1,1.692096740E-1,5.338962078E-1,-2.158797741E0,2.230265626E0
6.395636530E-1,1.728748679E-1,4.966334403E-1,-2.161852121E0,2.224889905E0
6.418011580E-1,2.119702399E-1,4.618141353E-1,-2.162462950E0,2.221362124E0
6.435660380E-1,2.211332172E-1,4.483750761E-1,-2.163073778E0,2.220096457E0
6.458560430E-1,2.687807083E-1,4.324925840E-1,-2.169182539E0,2.228148512E0
6.477603450E-1,2.974913716E-1,4.105014503E-1,-2.171015024E0,2.229421179E0
6.499588890E-1,3.011565804E-1,4.043927789E-1,-2.175901890E0,2.233557217E0
6.521018120E-1,3.145956099E-1,3.854559660E-1,-2.186897516E0,2.242781186E0
6.540027350E-1,3.280346394E-1,3.921754956E-1,-2.205834389E0,2.264313073E0
6.558736150E-1,3.359758854E-1,4.068362415E-1,-2.221716881E0,2.283510767E0
6.580710810E-1,3.451388776E-1,4.123340547E-1,-2.233934164E0,2.297738468E0
6.598878840E-1,3.426954150E-1,4.276056588E-1,-2.252871037E0,2.318558745E0
6.622224660E-1,3.439171314E-1,4.337143302E-1,-2.269975185E0,2.336487632E0
6.641219220E-1,3.518583775E-1,4.471533597E-1,-2.290133715E0,2.359759072E0
6.662785420E-1,3.469714522E-1,4.477642179E-1,-2.295020819E0,2.363895628E0
6.681523840E-1,3.378084898E-1,4.508185387E-1,-2.311514139E0,2.379169928E0
6.703818120E-1,3.384193480E-1,4.618141353E-1,-2.328618288E0,2.397970617E0
6.724821960E-1,3.396410644E-1,4.685336351E-1,-2.334116220E0,2.404782392E0
6.744440040E-1,3.378084898E-1,4.734205604E-1,-2.348165989E0,2.419116598E0
6.763481910E-1,3.329215646E-1,4.795292318E-1,-2.359161615E0,2.430314502E0
6.785132350E-1,3.341432810E-1,4.862487316E-1,-2.374433279E0,2.446635028E0
6.804248840E-1,3.408628106E-1,4.831944108E-1,-2.381152630E0,2.453477561E0
6.826647730E-1,3.573561609E-1,4.825835526E-1,-2.392759085E0,2.466958927E0
6.844358070E-1,3.866777122E-1,4.917465150E-1,-2.408641577E0,2.488551493E0
6.867209270E-1,3.988949955E-1,4.935791194E-1,-2.409863472E0,2.492023178E0
6.886238450E-1,4.166100919E-1,4.954117239E-1,-2.414750338E0,2.500003188E0
6.908246580E-1,4.502076805E-1,5.015203953E-1,-2.425745964E0,2.517628476E0
6.929681960E-1,4.850270152E-1,4.990769029E-1,-2.435519695E0,2.532999239E0
6.948725810E-1,5.039638281E-1,4.966334403E-1,-2.441017628E0,2.541493925E0
6.967422680E-1,5.479460955E-1,5.119050741E-1,-2.453845739E0,2.565862553E0
6.989415420E-1,6.010913849E-1,5.332853794E-1,-2.463008642E0,2.590775120E0
7.007633840E-1,6.218608022E-1,5.516113043E-1,-2.466673851E0,2.602972488E0
7.030934650E-1,6.963863969E-1,5.980370641E-1,-2.477669477E0,2.642243059E0
7.049491910E-1,7.544185519E-1,6.377432942E-1,-2.494773626E0,2.683236722E0
7.071498880E-1,8.283332586E-1,6.878342628E-1,-2.506990910E0,2.728416277E0
7.090418840E-1,8.515461683E-1,7.147123218E-1,-2.517375708E0,2.751931146E0
7.112543500E-1,9.224064946E-1,7.770205736E-1,-2.534479856E0,2.806810086E0
7.133546580E-1,9.633345008E-1,8.393288255E-1,-2.551584244E0,2.853606208E0
7.153172730E-1,9.987646937E-1,9.162978530E-1,-2.570520878E0,2.905978364E0
7.171031530E-1,1.018312335E0,9.529497623E-1,-2.584570885E0,2.936848637E0
7.193865420E-1,1.052520871E0,1.042747021E0,-2.613892317E0,3.004588920E0
7.213349610E-1,1.066570759E0,1.155146122E0,-2.641992092E0,3.074419939E0
7.235382730E-1,1.054353356E0,1.224784851E0,-2.658485651E0,3.111158127E0
7.253153840E-1,1.021366715E0,1.390940189E0,-2.711019993E0,3.213648080E0
7.275955420E-1,9.682214260E-1,1.550375938E0,-2.796540976E0,3.340921985E0
7.294946140E-1,9.083566070E-1,1.682933807E0,-2.884505749E0,3.460888808E0
7.317002730E-1,8.808676600E-1,1.745852828E0,-2.933985710E0,3.525932796E0
7.338441580E-1,8.405506015E-1,1.853976011E0,-3.039054632E0,3.657814296E0
7.357464270E-1,7.800748944E-1,1.940108061E0,-3.126408339E0,3.761245170E0
7.376175380E-1,7.238753438E-1,2.003638029E0,-3.200323105E0,3.844558341E0
7.398163880E-1,6.688974500E-1,2.024407387E0,-3.233920574E0,3.873485684E0
7.416431140E-1,5.968153477E-1,2.053729057E0,-3.287065983E0,3.921580597E0
7.439694270E-1,5.320636034E-1,2.087937355E0,-3.323717833E0,3.961019352E0
7.458255380E-1,5.174028873E-1,2.108706713E0,-3.338378668E0,3.982351300E0
7.480266580E-1,4.880813360E-1,2.148413181E0,-3.349985123E0,4.009526519E0
7.499214610E-1,5.033529401E-1,2.195449591E0,-3.338378668E0,4.027174595E0
7.521319270E-1,5.510004759E-1,2.257147074E0,-3.301726580E0,4.037290285E0
7.542328880E-1,5.821545720E-1,2.277305603E0,-3.249192238E0,4.010271182E0
7.561943110E-1,6.707300544E-1,2.331061840E0,-3.104417086E0,3.939686986E0
7.579848070E-1,7.776314616E-1,2.371378899E0,-2.938872576E0,3.855531168E0
7.602649650E-1,8.454375267E-1,2.379320145E0,-2.858238459E0,3.813850554E0
7.621729220E-1,9.853256345E-1,2.306627274E0,-2.715296030E0,3.696515726E0
7.644167340E-1,1.115439892E0,2.251038313E0,-2.557692766E0,3.585132065E0
7.661899610E-1,1.315803766E0,2.246762276E0,-2.416582823E0,3.552344692E0
7.684735040E-1,1.406211853E0,2.249816656E0,-2.356107235E0,3.548288047E0
7.703751140E-1,1.633453608E0,2.276083946E0,-2.237599373E0,3.585467860E0
7.725776570E-1,1.814269781E0,2.296242476E0,-2.103209019E0,3.603858005E0
7.747213110E-1,2.045176744E0,2.312735796E0,-1.960266590E0,3.657067115E0
7.766218880E-1,2.149024010E0,2.351831198E0,-1.886962771E0,3.702707479E0
7.784924610E-1,2.437963247E0,2.392759085E0,-1.737911582E0,3.832661934E0
7.806908500E-1,2.638937950E0,2.392148256E0,-1.576032281E0,3.894899811E0
7.825123450E-1,2.787378073E0,2.412306786E0,-1.475850463E0,3.970747428E0
7.848424650E-1,2.988963604E0,2.448347807E0,-1.248608589E0,4.060459804E0
7.867041530E-1,3.197879553E0,2.491719246E0,-9.761626720E-1,4.169891125E0
7.888982340E-1,3.361591339E0,2.544253826E0,-6.603453159E-1,4.267268424E0
7.907533840E-1,3.432451725E0,2.575407982E0,-4.893030524E-1,4.319012456E0
7.930328880E-1,3.539353132E0,2.640770435E0,-1.313360333E-1,4.417911072E0
7.951336960E-1,3.600439787E0,2.707965612E0,2.412917763E-1,4.511592417E0
7.970957730E-1,3.623652697E0,2.733011007E0,4.282165468E-1,4.558900903E0
7.988928840E-1,3.624263525E0,2.764165163E0,7.715228200E-1,4.622893316E0
8.011652730E-1,3.596774578E0,2.761721849E0,1.062294602E0,4.657506281E0
8.030751530E-1,3.499646902E0,2.731178522E0,1.279151797E0,4.619858643E0
8.053172340E-1,3.466049433E0,2.709187269E0,1.350623012E0,4.601888400E0
8.070942300E-1,3.335324287E0,2.640770435E0,1.444696307E0,4.492794678E0
8.093737730E-1,3.192381859E0,2.577851295E0,1.487456918E0,4.364532886E0
8.113088450E-1,2.974913836E0,2.532647371E0,1.480126500E0,4.177940820E0
8.134785420E-1,2.817310572E0,2.531425476E0,1.465465665E0,4.061150504E0
8.156222730E-1,2.354885578E0,2.558303595E0,1.417207360E0,3.754847543E0
8.175241190E-1,1.831984878E0,2.539366722E0,1.340849161E0,3.406233758E0
8.194041140E-1,1.583973527E0,2.506990910E0,1.293201685E0,3.235173280E0
8.215933880E-1,1.098946571E0,2.393369913E0,1.190576315E0,2.890220592E0
8.234216910E-1,6.359107494E-1,2.229047298E0,1.072679400E0,2.554148671E0
8.257448110E-1,1.912008226E-1,2.029294252E0,9.523389339E-1,2.249787182E0
8.276079610E-1,-9.162978269E-3,1.918116927E0,8.961393237E-1,2.117149545E0
8.298018110E-1,-3.988949955E-1,1.678657651E0,7.770205736E-1,1.892292181E0
8.316291910E-1,-7.403686643E-1,1.425148606E0,6.572909951E-1,1.735288380E0
8.339059260E-1,-1.051909924E0,1.156978726E0,5.400048494E-1,1.654303327E0
8.360060420E-1,-1.184467673E0,1.020144939E0,4.789183438E-1,1.634937964E0
8.379673110E-1,-1.419650793E0,7.507534027E-1,3.622430861E-1,1.646286457E0
8.397644220E-1,-1.604132175E0,4.801400900E-1,2.553416789E-1,1.693804568E0
8.420364260E-1,-1.679268599E0,3.494149148E-1,2.052507252E-1,1.727472625E0
8.439485760E-1,-1.783726573E0,8.918632567E-2,1.123992056E-1,1.789488270E0
8.461883880E-1,-1.838093519E0,-1.624901593E-1,3.359758854E-2,1.845567565E0
8.479649610E-1,-1.853976011E0,-4.056145251E-1,-2.687807009E-2,1.898018078E0
8.502443490E-1,-1.843591332E0,-5.259549618E-1,-5.314527452E-2,1.917884784E0
8.521843070E-1,-1.809993744E0,-7.574729323E-1,-8.735372871E-2,1.964045129E0
8.543478490E-1,-1.745852828E0,-9.694431424E-1,-1.026253626E-1,1.999588475E0
8.564904650E-1,-1.663386106E0,-1.171639562E0,-1.020144969E-1,2.037154771E0
8.583918490E-1,-1.614516854E0,-1.265101910E0,-9.712757170E-2,2.053431586E0
8.602693070E-1,-1.510669708E0,-1.439809442E0,-7.391469181E-2,2.088213968E0
8.624606960E-1,-1.392161846E0,-1.575421453E0,-3.665191308E-2,2.102715083E0
8.642988840E-1,-1.325577617E0,-1.628566742E0,-1.038470957E-2,2.099879400E0
8.666122340E-1,-1.187522054E0,-1.712866187E0,4.520402849E-2,2.084745214E0
8.684777680E-1,-1.048855662E0,-1.773952723E0,1.014036313E-1,2.063319936E0
8.706676960E-1,-9.193521738E-1,-1.831374049E0,1.624901593E-1,2.055612410E0
8.725084610E-1,-8.582656980E-1,-1.854586840E0,1.930334121E-1,2.052650543E0
8.747706960E-1,-7.476990819E-1,-1.902234316E0,2.547308207E-1,2.059717724E0
8.768714650E-1,-6.450737119E-1,-1.944994926E0,3.152064681E-1,2.073277713E0
8.788052340E-1,-5.998696685E-1,-1.963320851E0,3.451388776E-1,2.081728424E0
8.806081530E-1,-5.082398653E-1,-1.998140216E0,3.970624208E-1,2.099650125E0
8.828738110E-1,-4.263839424E-1,-2.023796558E0,4.483750761E-1,2.116269355E0
8.847892680E-1,-3.506366611E-1,-2.040900707E0,4.850270152E-1,2.126845780E0
8.870238880E-1,-3.133738637E-1,-2.044565916E0,5.039638281E-1,2.128951034E0
8.888033840E-1,-2.394591719E-1,-2.045787811E0,5.375614166E-1,2.128746284E0
8.910798110E-1,-1.728748679E-1,-2.040900707E0,5.601634383E-1,2.123427535E0
8.929819220E-1,-1.093448773E-1,-2.023185730E0,5.766568184E-1,2.106601502E0
8.951838490E-1,-7.574728876E-2,-2.008524895E0,5.839871764E-1,2.093072126E0
8.973272720E-1,-2.199114859E-2,-1.979814291E0,5.870414972E-1,2.065130978E0
8.992292720E-1,3.604105115E-2,-1.942551494E0,5.827654600E-1,2.028403521E0
9.010939990E-1,5.986479297E-2,-1.917505980E0,5.815436840E-1,2.004646111E0
9.032974260E-1,1.075122803E-1,-1.872912884E0,5.717698932E-1,1.961194119E0
9.051129220E-1,1.490511149E-1,-1.816102386E0,5.589417219E-1,1.906006285E0
9.074482720E-1,1.869247705E-1,-1.747685432E0,5.461135507E-1,1.840539391E0
9.093309220E-1,2.021963894E-1,-1.712255239E0,5.412266254E-1,1.807104769E0
9.115037720E-1,2.351831198E-1,-1.636507988E0,5.314527750E-1,1.736638001E0
9.133320370E-1,2.602286041E-1,-1.557095528E0,5.198463202E-1,1.662078700E0
9.156069260E-1,2.718350291E-1,-1.513113260E0,5.180137157E-1,1.622265154E0
9.177075030E-1,2.938261926E-1,-1.427592039E0,5.119050741E-1,1.544797613E0
9.196689650E-1,3.139847219E-1,-1.334740520E0,5.119050741E-1,1.463613837E0
9.214496140E-1,3.268128932E-1,-1.237612963E0,5.143485069E-1,1.379509659E0
9.237366180E-1,3.329215646E-1,-1.186300278E0,5.149593949E-1,1.335413155E0
9.256463840E-1,3.445279896E-1,-1.076344609E0,5.222898126E-1,1.244991527E0
9.278866570E-1,3.518583775E-1,-9.651671052E-1,5.277875662E-1,1.154950897E0
9.296462680E-1,3.543018401E-1,-9.083566070E-1,5.302310586E-1,1.109858772E0
9.319419650E-1,3.616322279E-1,-7.953465581E-1,5.387831330E-1,1.026470302E0
9.338478450E-1,3.652974069E-1,-6.811147332E-1,5.491678715E-1,9.481270096E-1
9.360444650E-1,3.616322279E-1,-5.650503635E-1,5.607742667E-1,8.743726664E-1
9.381870800E-1,3.634648323E-1,-5.094616413E-1,5.638286471E-1,8.423541961E-1
9.400878110E-1,3.616322279E-1,-3.970624208E-1,5.693264008E-1,7.826678637E-1
9.419596140E-1,3.646865487E-1,-2.852740586E-1,5.681046844E-1,7.328850522E-1
9.441554260E-1,3.659082949E-1,-2.302961946E-1,5.626068711E-1,7.095433101E-1
9.459759600E-1,3.634648323E-1,-1.288925707E-1,5.497786999E-1,6.715479119E-1
9.483055030E-1,3.640756905E-1,-2.993239649E-2,5.308418870E-1,6.443913142E-1
9.501791140E-1,3.652974069E-1,6.414084882E-2,5.015203953E-1,6.237619344E-1
9.523602720E-1,3.616322279E-1,1.117883399E-1,4.862487316E-1,6.162080251E-1
9.542046530E-1,3.616322279E-1,2.064724565E-1,4.483750761E-1,6.119223418E-1
9.564643110E-1,3.567453027E-1,2.987131178E-1,4.062253833E-1,6.176696526E-1
9.585644260E-1,3.488040566E-1,3.903428912E-1,3.671300113E-1,6.393874317E-1
9.605251570E-1,3.481931984E-1,4.331034720E-1,3.451388776E-1,6.541696766E-1
9.623078070E-1,3.359758854E-1,5.180137157E-1,3.060434759E-1,6.891158207E-1
9.645932340E-1,3.298672438E-1,5.992587805E-1,2.718350291E-1,7.360827179E-1
9.665086530E-1,3.255911767E-1,6.328563690E-1,2.571742535E-1,7.567399783E-1
9.687434260E-1,3.200933933E-1,7.006624341E-1,2.333505303E-1,8.048851452E-1
9.705159220E-1,3.109304011E-1,7.586946487E-1,2.144137025E-1,8.475072390E-1
9.727987340E-1,3.005456924E-1,8.069530129E-1,1.954768747E-1,8.830130729E-1
9.747046140E-1,2.944370508E-1,8.234463334E-1,1.899790913E-1,8.949017242E-1
9.769008490E-1,2.877175212E-1,8.655960560E-1,1.753183305E-1,9.288565127E-1
9.790430410E-1,2.816088796E-1,8.924741149E-1,1.673770845E-1,9.506990561E-1
9.809433870E-1,2.761110961E-1,9.046914577E-1,1.655444801E-1,9.602650395E-1
9.828027680E-1,2.730567753E-1,9.205739498E-1,1.582140923E-1,9.731639629E-1
9.850106180E-1,2.687807083E-1,9.315695167E-1,1.582140923E-1,9.823932677E-1
9.868229600E-1,2.693915665E-1,9.334021211E-1,1.576032341E-1,9.842002414E-1
9.891612340E-1,2.693915665E-1,9.315695167E-1,1.606575549E-1,9.829569830E-1
9.910336530E-1,2.712241709E-1,9.230173826E-1,1.618792862E-1,9.755657552E-1
9.932155800E-1,2.712241709E-1,9.059131742E-1,1.606575549E-1,9.591934528E-1
9.950360370E-1,2.797762752E-1,8.845328689E-1,1.661553532E-1,9.424864782E-1
9.973180030E-1,2.797762752E-1,8.710938692E-1,1.728748679E-1,9.311095602E-1
9.994175800E-1,2.871066630E-1,8.381071091E-1,1.802052408E-1,9.040617739E-1
1.001378349E0,2.932153046E-1,7.898487449E-1,1.905899495E-1,8.638059872E-1
1.003162922E0,2.981022298E-1,7.641924024E-1,1.966986060E-1,8.435314510E-1
1.005445618E0,3.084869385E-1,7.018841505E-1,2.058615834E-1,7.938416362E-1
1.007359345E0,3.176499307E-1,6.261368990E-1,2.217440903E-1,7.362875365E-1
1.009594233E0,3.249803185E-1,5.424483418E-1,2.382374406E-1,6.757362571E-1
1.011368153E0,3.292563558E-1,4.941899776E-1,2.449569702E-1,6.423685851E-1
1.013649272E0,3.359758854E-1,3.866777122E-1,2.669481039E-1,5.776337411E-1
1.015556691E0,3.414736688E-1,2.706133127E-1,2.938261926E-1,5.255184706E-1
1.017752003E0,3.463605940E-1,1.386664063E-1,3.194825351E-1,4.911854269E-1
1.019894541E0,3.488040566E-1,6.475171447E-2,3.329215646E-1,4.865118936E-1
1.021794387E0,3.530801237E-1,-8.796459436E-2,3.659082949E-1,5.160350995E-1
1.023658999E0,3.597996235E-1,-2.431243658E-1,3.976732790E-1,5.888202299E-1
1.025861580E0,3.604104817E-1,-3.243694305E-1,4.153883755E-1,6.384815935E-1
1.027674191E0,3.640756905E-1,-4.831944108E-1,4.508185387E-1,7.544967209E-1
1.030011926E0,3.695734739E-1,-6.475171447E-1,4.856378734E-1,8.897792700E-1
1.031902422E0,3.732386529E-1,-8.075638413E-1,5.222898126E-1,1.031626433E0
1.034067195E0,3.756821156E-1,-8.875871897E-1,5.430592299E-1,1.106282694E0
1.035931845E0,3.769038618E-1,-1.042136073E0,5.821545720E-1,1.251801926E0
1.038198964E0,3.781255782E-1,-1.183246017E0,6.212499738E-1,1.388885027E0
1.040298195E0,3.811798990E-1,-1.312749386E0,6.579018831E-1,1.517051071E0
1.042258503E0,3.811798990E-1,-1.372614264E0,6.768386960E-1,1.577174263E0
1.044167768E0,3.775147200E-1,-1.494176388E0,7.122688890E-1,1.697765417E0
1.046325579E0,3.744603992E-1,-1.615738630E0,7.440338731E-1,1.817805907E0
1.048239653E0,3.701843321E-1,-1.676825047E0,7.599163651E-1,1.877831611E0
1.050474849E0,3.622430861E-1,-1.804495931E0,7.849618196E-1,2.000897468E0
1.052252268E0,3.555235863E-1,-1.921171188E0,8.087855577E-1,2.114575568E0
1.054529387E0,3.414736688E-1,-2.018909693E0,8.326093554E-1,2.210393393E0
1.056439153E0,3.390302062E-1,-2.059837580E0,8.448266387E-1,2.252022288E0
1.058632195E0,3.323107064E-1,-2.128254414E0,8.643743396E-1,2.320999839E0
1.060775195E0,3.268128932E-1,-2.172236919E0,8.802568316E-1,2.366489381E0
1.062676849E0,3.249803185E-1,-2.188119411E0,8.869763613E-1,2.383318240E0
1.064550268E0,3.255911767E-1,-2.187508345E0,9.040805697E-1,2.389260147E0
1.066745233E0,3.237585723E-1,-2.163684607E0,9.260717034E-1,2.375701894E0
1.068560922E0,3.310889602E-1,-2.130087137E0,9.370672703E-1,2.350528915E0
1.070894849E0,3.371976018E-1,-2.107485056E0,9.431759119E-1,2.333404441E0
1.072759614E0,3.481931984E-1,-2.047009468E0,9.590584636E-1,2.287199030E0
1.074950387E0,3.616322279E-1,-1.978592515E0,9.676105380E-1,2.232011730E0
1.076769460E0,3.714060783E-1,-1.935831904E0,9.749409556E-1,2.199067417E0
1.079053195E0,3.940080702E-1,-1.846645594E0,9.883799553E-1,2.131252506E0
1.081152618E0,4.208861589E-1,-1.753794074E0,9.932668805E-1,2.059008963E0
1.083112272E0,4.440990388E-1,-1.667662144E0,9.975429177E-1,1.993342132E0
1.084894768E0,4.587597847E-1,-1.623679876E0,9.987646937E-1,1.960695742E0
1.087179849E0,4.776966274E-1,-1.525330544E0,9.999864101E-1,1.885417767E0
1.089103960E0,5.094616413E-1,-1.421483397E0,1.006095052E0,1.814495375E0
1.091330502E0,5.265658498E-1,-1.329242826E0,1.010371089E0,1.750716374E0
1.093104883E0,5.369505286E-1,-1.279151797E0,1.014647126E0,1.718736158E0
1.095387156E0,5.497786999E-1,-1.178969979E0,1.022588372E0,1.654664259E0
1.097293922E0,5.626068711E-1,-1.083674908E0,1.037249207E0,1.602112267E0
1.099490618E0,5.736024380E-1,-1.031140566E0,1.045190454E0,1.576291124E0
1.101633618E0,5.888741016E-1,-9.468411207E-1,1.055575132E0,1.535421661E0
1.103534348E0,6.096435189E-1,-8.680394888E-1,1.070235968E0,1.506838678E0
1.105403922E0,6.224716902E-1,-7.880161405E-1,1.087950945E0,1.480566682E0
1.107602233E0,6.328563690E-1,-7.483099103E-1,1.097113967E0,1.471099576E0
1.109420883E0,6.499606371E-1,-6.786713004E-1,1.114829063E0,1.458042319E0
1.111752118E0,6.695083380E-1,-6.102544069E-1,1.136209369E0,1.453142658E0
1.113611191E0,6.853908300E-1,-5.656611919E-1,1.155757070E0,1.457912061E0
1.115806887E0,6.957755089E-1,-5.436700583E-1,1.168585181E0,1.464674714E0
1.117659883E0,7.159340382E-1,-5.119050741E-1,1.192408919E0,1.482041627E0
1.119909387E0,7.330383062E-1,-4.880813360E-1,1.215011001E0,1.500606638E0
1.122009464E0,7.434229851E-1,-4.813618064E-1,1.227228284E0,1.513431923E0
1.123943079E0,7.586946487E-1,-4.868595898E-1,1.248608589E0,1.540023779E0
1.125742845E0,7.709119320E-1,-5.039638281E-1,1.279762745E0,1.576729980E0
1.128010656E0,7.751879692E-1,-5.149593949E-1,1.298088670E0,1.597226897E0
1.129917730E0,7.971791625E-1,-5.418374538E-1,1.334740520E0,1.646394454E0
1.132161118E0,8.124507666E-1,-5.821545720E-1,1.375057697E0,1.699930547E0
1.133935730E0,8.387179971E-1,-6.236934066E-1,1.417818189E0,1.761434007E0
1.136216271E0,8.491026759E-1,-6.511823535E-1,1.441031098E0,1.794877277E0
1.138120306E0,8.790351152E-1,-7.110471725E-1,1.489900351E0,1.870319189E0
1.140318425E0,9.046914577E-1,-7.843509912E-1,1.536936998E0,1.948293727E0
1.142460810E0,9.321803451E-1,-8.686503768E-1,1.583362699E0,2.032375730E0
1.144360656E0,9.474520087E-1,-9.132435322E-1,1.609019041E0,2.078610433E0
1.146265114E0,9.639453292E-1,-1.001208186E0,1.657888293E0,2.163377457E0
1.148427194E0,9.810495973E-1,-1.098335743E0,1.711644411E0,2.257991653E0
1.150239460E0,9.853256345E-1,-1.147204876E0,1.738522530E0,2.304214881E0
1.152577079E0,9.957103729E-1,-1.253495455E0,1.798387289E0,2.407672495E0
1.154551153E0,1.005484223E0,-1.357342601E0,1.857030392E0,2.510366375E0
1.156631118E0,1.018312335E0,-1.458135366E0,1.914451718E0,2.613090917E0
1.158459576E0,1.021366715E0,-1.503339410E0,1.944994926E0,2.661996358E0
1.160733002E0,1.036027431E0,-1.572367191E0,2.007914066E0,2.752709632E0
1.162832579E0,1.038470864E0,-1.642005801E0,2.066557169E0,2.836417339E0
1.164794079E0,1.044579625E0,-1.709811807E0,2.122145891E0,2.918579482E0
1.166624076E0,1.049466491E0,-1.736078978E0,2.155743361E0,2.960165463E0
1.168861810E0,1.037860036E0,-1.786170006E0,2.221716881E0,3.033740701E0
1.170767999E0,1.062294602E0,-1.899180055E0,2.367713690E0,3.215808268E0
1.173011541E0,1.111163855E0,-1.990809798E0,2.507601738E0,3.389111276E0
1.174787922E0,1.301142931E0,-2.280359983E0,2.927266359E0,3.932162626E0
1.177066656E0,1.612073421E0,-2.730567694E0,3.495370865E0,4.719364166E0
1.178966537E0,1.992031574E0,-3.288287640E0,4.176485538E0,5.676623719E0
1.181169156E0,2.198503971E0,-3.615100622E0,4.529565811E0,6.198333539E0
1.183312194E0,2.659096479E0,-4.351192951E0,5.207015514E0,7.288119425E0
1.185213925E0,3.149621248E0,-5.217400074E0,5.799554825E0,8.412860019E0
1.187087960E0,3.412904024E0,-5.704870701E0,6.061615944E0,8.996479947E0
1.189282040E0,3.948022127E0,-6.758613110E0,6.524651527E0,1.019003471E1
1.191101883E0,4.424497128E0,-7.882605076E0,6.882618904E0,1.136142951E1
1.193433117E0,4.761083603E0,-8.958338737E0,7.115358353E0,1.239145167E1
1.195294153E0,4.867374420E0,-9.475131035E0,7.178888321E0,1.284546143E1
1.197487964E0,4.954117298E0,-1.050993633E1,7.207599163E0,1.367302182E1
1.199316653E0,4.866152763E0,-1.142501259E1,7.098254204E0,1.430369072E1
1.201590540E0,4.581489563E0,-1.204137611E1,6.914383888E0,1.462167876E1
1.203690579E0,4.389066696E0,-1.228877640E1,6.812980175E0,1.472055130E1
1.205624463E0,3.927863598E0,-1.267362118E1,6.574742794E0,1.480797181E1
1.207417960E0,3.366478443E0,-1.294118023E1,6.320622921E0,1.479045628E1
1.209692887E0,3.094032526E0,-1.298149776E1,6.172793388E0,1.470359479E1
1.211602576E0,2.535701513E0,-1.296500397E1,5.894849777E0,1.446618000E1
1.213842810E0,1.933388472E0,-1.286604404E1,5.642562389E0,1.418138183E1
1.215622922E0,1.435533285E0,-1.261681080E1,5.413487911E0,1.380400384E1
1.217898925E0,1.201571941E0,-1.246776009E1,5.329188347E0,1.361209261E1
1.219799422E0,8.301658630E-1,-1.210307312E1,5.153259277E0,1.318065383E1
1.222001617E0,5.619960427E-1,-1.175243664E1,5.022533894E0,1.279302361E1
1.224144117E0,4.538728893E-1,-1.145983219E1,4.922352314E0,1.248051709E1
1.226044886E0,4.520402849E-1,-1.132910728E1,4.880813122E0,1.234404103E1
1.227899114E0,5.736024380E-1,-1.112324524E1,4.805066109E0,1.213030357E1
1.230112502E0,8.191702962E-1,-1.091677284E1,4.724431992E0,1.192338991E1
1.231933422E0,1.007927656E0,-1.076894379E1,4.682281971E0,1.178600157E1
1.234263463E0,1.500285029E0,-1.012509155E1,4.577213287E0,1.121245805E1
1.236176345E0,2.169182539E0,-8.926573753E0,4.458705425E0,1.021122549E1
1.238318271E0,2.550973177E0,-8.106182098E0,4.393342972E0,9.566562331E0
1.240142306E0,3.354871988E0,-6.076887608E0,4.254065514E0,8.141302257E0
1.242420463E0,4.097683907E0,-3.955963373E0,4.092186451E0,7.013319439E0
1.244520194E0,4.585154533E0,-1.926669002E0,3.926030874E0,6.336356521E0
1.246479733E0,4.751309872E0,-9.944885969E-1,3.846007586E0,6.193200095E0
1.248286806E0,4.956560612E0,6.224716902E-1,3.695123911E0,6.213606426E0
1.250547233E0,4.993823528E0,1.835650086E0,3.542407513E0,6.391911737E0
1.252480960E0,4.881423950E0,2.556471109E0,3.405573845E0,6.477791099E0
1.254696463E0,4.810564041E0,2.756223917E0,3.338378668E0,6.471712973E0
1.256534460E0,4.615697861E0,2.824029922E0,3.196657896E0,6.284777916E0
1.258750502E0,4.382347107E0,2.514932156E0,3.062267542E0,5.908242752E0
1.260669114E0,4.240015507E0,2.258979559E0,2.991407156E0,5.659437862E0
1.262852271E0,3.943746090E0,1.643227458E0,2.832582235E0,5.126095183E0
1.264994232E0,3.625485182E0,9.902125597E-1,2.646879196E0,4.596806848E0
1.266894886E0,3.316387415E0,4.050036669E-1,2.436130524E0,4.134874289E0
1.268767768E0,3.153897285E0,1.808161139E-1,2.315179348E0,3.916607967E0
1.270961656E0,2.852129936E0,-1.075122803E-1,2.065335512E0,3.523040568E0
1.272788806E0,2.584570885E0,-2.076941878E-1,1.811215401E0,3.162853895E0
1.275110809E0,2.356718063E0,-1.527163088E-1,1.568091035E0,2.834845991E0
1.277163232E0,2.251038313E0,-7.880161703E-2,1.450804949E0,2.679219696E0
1.279166117E0,2.051285505E0,1.685988009E-1,1.218676209E0,2.391938436E0
1.281039499E0,1.872912884E0,5.051855445E-1,9.902125597E-1,2.177966028E0
1.283299271E0,1.789224267E0,6.817256212E-1,8.863654733E-1,2.109909252E0
1.285398655E0,1.622458100E0,1.043968678E0,7.147123218E-1,2.057438842E0
1.287359963E0,1.457524419E0,1.378111959E0,5.864306092E-1,2.089849483E0
1.289190806E0,1.315192819E0,1.649947047E0,5.106833577E-1,2.170911076E0
1.291427732E0,1.250441194E0,1.756237626E0,4.972442985E-1,2.212515688E0
1.293327768E0,1.139874578E0,1.956601381E0,5.106833577E-1,2.321292853E0
1.295577771E0,1.120326877E0,2.204001904E0,5.754350424E-1,2.538480291E0
1.297389729E0,1.131933331E0,2.315790176E0,6.218608022E-1,2.651578410E0
1.299632348E0,1.184467673E0,2.497217178E0,7.440338731E-1,2.862279460E0
1.301548268E0,1.269988894E0,2.587014198E0,8.857545853E-1,3.014975197E0
1.303734078E0,1.360396862E0,2.589457750E0,1.027475357E0,3.100270419E0
1.305876117E0,1.414763927E0,2.583349228E0,1.104444385E0,3.145639458E0
1.307777271E0,1.546099901E0,2.483778000E0,1.232115149E0,3.174537100E0
1.309652153E0,1.706757545E0,2.346333504E0,1.348179579E0,3.199357812E0
1.311844886E0,1.788613439E0,2.255314589E0,1.403768301E0,3.202522033E0
1.313671037E0,1.957823157E0,2.058615923E0,1.492954612E0,3.209343314E0
1.315994194E0,2.125200272E0,1.863139033E0,1.565647602E0,3.230946559E0
1.318036806E0,2.261423111E0,1.651779652E0,1.621847272E0,3.236170434E0
1.320049925E0,2.316401005E0,1.554652095E0,1.643838406E0,3.238033578E0
1.321878576E0,2.397035122E0,1.353677392E0,1.670716405E0,3.220172847E0
1.324153348E0,2.447736979E0,1.214400053E0,1.689042449E0,3.212327536E0
1.326253578E0,2.466063023E0,1.138041973E0,1.698205352E0,3.203202738E0
1.328215425E0,2.460565090E0,1.133154988E0,1.707979202E0,3.202438719E0
1.330013306E0,2.428189278E0,1.189354658E0,1.723861694E0,3.206612981E0
1.332284578E0,2.373211384E0,1.282817006E0,1.731192112E0,3.205429436E0
1.334191383E0,2.331061840E0,1.323134065E0,1.734857321E0,3.192845593E0
1.336435886E0,2.249205828E0,1.405600905E0,1.747685432E0,3.176325728E0
1.338199383E0,2.147802114E0,1.455691934E0,1.759291887E0,3.134836658E0
1.340492194E0,2.031126976E0,1.467909217E0,1.762957096E0,3.064025454E0
1.342392383E0,1.983479500E0,1.480737329E0,1.764789701E0,3.039943527E0
1.344595424E0,1.916284323E0,1.524108768E0,1.764178872E0,3.017843640E0
1.346738271E0,1.863749862E0,1.566258430E0,1.761124492E0,3.004711050E0
1.348640040E0,1.827097893E0,1.606575608E0,1.752572417E0,2.998479944E0
1.350508191E0,1.818545818E0,1.638340592E0,1.750128984E0,3.009023139E0
1.352707463E0,1.810604572E0,1.663386106E0,1.748296380E0,3.016899483E0
1.354582268E0,1.810604572E0,1.648725271E0,1.745852828E0,3.007421825E0
1.356857309E0,1.805106759E0,1.632231951E0,1.742798567E0,2.993315619E0
1.358800691E0,1.796554685E0,1.584584475E0,1.744631171E0,2.963486902E0
1.360913040E0,1.770898342E0,1.527163148E0,1.733024716E0,2.910615551E0
1.362754345E0,1.741576791E0,1.469741821E0,1.723250866E0,2.857065678E0
1.365016655E0,1.717753053E0,1.432479024E0,1.715309620E0,2.818680329E0
1.367116501E0,1.674381614E0,1.347568750E0,1.701870561E0,2.741506653E0
1.369050155E0,1.637118816E0,1.259604096E0,1.684766293E0,2.665557720E0
1.370852422E0,1.612684250E0,1.205237150E0,1.678046823E0,2.620913623E0
1.373117463E0,1.574199796E0,1.110553026E0,1.647503614E0,2.534896680E0
1.375031576E0,1.533882618E0,1.007316828E0,1.614516854E0,2.444206978E0
1.377268271E0,1.503339410E0,8.998045325E-1,1.585195303E0,2.362736068E0
1.379124576E0,1.483791709E0,8.497135639E-1,1.568091035E0,2.320034584E0
1.381323540E0,1.444696307E0,7.696902156E-1,1.533882618E0,2.243293635E0
1.383257922E0,1.393383622E0,6.878342628E-1,1.511280656E0,2.167626147E0
1.385426155E0,1.347568750E0,6.414085031E-1,1.497230768E0,2.114011915E0
1.387568501E0,1.329242826E0,6.365215778E-1,1.491732955E0,2.096977210E0
1.389469194E0,1.275486588E0,6.096435189E-1,1.496619821E0,2.058737998E0
1.391430037E0,1.227228284E0,5.962044597E-1,1.496619821E0,2.025196264E0
1.393536347E0,1.206458807E0,5.852088928E-1,1.491122007E0,2.005357111E0
1.395354229E0,1.142318010E0,5.461135507E-1,1.478904724E0,1.946866618E0
1.397686655E0,1.078177214E0,4.948008358E-1,1.474628687E0,1.892570669E0
1.399543229E0,1.046412110E0,4.257730842E-1,1.465465665E0,1.850365001E0
1.401741194E0,1.021977544E0,3.964515328E-1,1.452637553E0,1.819826305E0
1.403561114E0,9.920451641E-1,3.316998184E-1,1.431257248E0,1.772759343E0
1.405843232E0,9.297369123E-1,2.974913716E-1,1.409266114E0,1.714334513E0
1.407943347E0,8.845328689E-1,2.516764700E-1,1.382998943E0,1.660850842E0
1.409903424E0,8.497135639E-1,2.425135076E-1,1.364672899E0,1.625779217E0
1.411693422E0,8.124507666E-1,2.370157093E-1,1.306029916E0,1.556266955E0
1.413970424E0,7.464773059E-1,2.388483137E-1,1.233336926E0,1.461299715E0
1.415876229E0,7.208209634E-1,2.406809032E-1,1.200961113E0,1.421202925E0
1.418121270E0,6.633996367E-1,2.528982162E-1,1.143539786E0,1.346008852E0
1.419893883E0,6.010913849E-1,2.669481039E-1,1.092227101E0,1.274963601E0
1.422175886E0,5.467243791E-1,2.687807083E-1,1.039081812E0,1.204508874E0
1.424086422E0,5.204572082E-1,2.736676335E-1,1.013425469E0,1.171665849E0
1.426278540E0,4.703662395E-1,2.828305960E-1,9.584475756E-1,1.104472408E0
1.428421732E0,4.233296216E-1,2.956587672E-1,9.114109278E-1,1.047517043E0
1.430323347E0,3.915646076E-1,2.919935882E-1,8.863654733E-1,1.012040933E0
1.432187960E0,3.359758854E-1,3.072652221E-1,8.460483551E-1,9.607754844E-1
1.434392347E0,2.828305960E-1,3.145956099E-1,8.081747293E-1,9.122006013E-1
1.436219768E0,2.186897546E-1,3.304781020E-1,7.666358948E-1,8.630014947E-1
1.438543732E0,1.875356287E-1,3.426954150E-1,7.440338731E-1,8.403547845E-1
1.440395306E0,1.423316002E-1,3.714060783E-1,6.994407177E-1,8.046229409E-1
1.442599963E0,7.452555746E-2,3.940080702E-1,6.493497491E-1,7.631851117E-1
1.444429345E0,3.909537569E-2,4.007275999E-1,6.298020482E-1,7.475036305E-1
1.446703847E0,-3.237585723E-2,4.184426963E-1,5.882632136E-1,7.226313685E-1
1.448804463E0,-1.233947799E-1,4.294382632E-1,5.381723046E-1,6.994804665E-1
1.450765539E0,-2.345722616E-1,4.251621962E-1,4.929682612E-1,6.919571848E-1
1.452564806E0,-3.005456924E-1,4.202753007E-1,4.673119187E-1,6.966630972E-1
1.454833924E0,-4.373795092E-1,4.074471295E-1,4.214970171E-1,7.314189865E-1
1.456736729E0,-5.809328556E-1,3.701843321E-1,3.738495409E-1,7.837620186E-1
1.458984732E0,-7.055493593E-1,3.310889602E-1,3.255911767E-1,8.446475078E-1
1.460751037E0,-7.586946487E-1,3.066543639E-1,2.987131178E-1,8.711394812E-1
1.463040809E0,-8.454375267E-1,2.651155293E-1,2.412917763E-1,9.182987405E-1
1.464946999E0,-8.912523985E-1,2.419026345E-1,1.954768747E-1,9.439591786E-1
1.467144155E0,-9.083566070E-1,2.321287990E-1,1.710422635E-1,9.530220148E-1
1.469286462E0,-9.315695167E-1,2.254092693E-1,1.282816976E-1,9.669991194E-1
1.471187655E0,-9.370672703E-1,2.193006277E-1,8.491026610E-2,9.661250373E-1
1.473069268E0,-9.358455539E-1,2.180788964E-1,5.558873713E-2,9.625255391E-1
1.475255655E0,-9.419541955E-1,2.156354338E-1,4.092797264E-2,9.671873891E-1
1.477102652E0,-9.492846131E-1,2.119702399E-1,1.710422710E-2,9.728130416E-1
1.479407078E0,-9.621127844E-1,2.021963894E-1,-8.552113548E-3,9.831670908E-1
1.481298768E0,-9.712757468E-1,1.979203373E-1,-1.893682219E-2,9.914169857E-1
1.483463001E0,-9.914342761E-1,1.893682331E-1,-4.031710699E-2,1.010162225E0
1.485317499E0,-1.012203693E0,1.679879427E-1,-5.314527452E-2,1.027424297E0
1.487566616E0,-1.036638379E0,1.466076523E-1,-7.086037099E-2,1.049349382E0
1.489666578E0,-1.054964304E0,1.319468915E-1,-7.819075137E-2,1.066055092E0
1.491628655E0,-1.080620646E0,1.062905490E-1,-8.857546002E-2,1.089442185E0
1.493419499E0,-1.116661668E0,8.368854225E-2,-1.069014147E-1,1.124884423E0
1.495696962E0,-1.141096234E0,6.780604273E-2,-1.154535338E-1,1.148924625E0
1.497626806E0,-1.172250390E0,5.558873713E-2,-1.343903542E-1,1.181237424E0
1.499847655E0,-1.212567568E0,4.459316283E-2,-1.521054506E-1,1.222883774E0
1.501635075E0,-1.251662850E0,4.703662544E-2,-1.606575549E-1,1.262807660E0
1.503903924E0,-1.273043156E0,4.703662544E-2,-1.594358236E-1,1.283850109E0
1.505858037E0,-1.291980028E0,5.070181563E-2,-1.618792862E-1,1.303068675E0
1.508007308E0,-1.302364707E0,4.337143153E-2,-1.563815027E-1,1.312436698E0
1.510150347E0,-1.318247199E0,2.321287990E-2,-1.411098689E-1,1.325981339E0
1.512051616E0,-1.313971162E0,1.099557430E-2,-1.337794960E-1,1.320809627E0
1.514026460E0,-1.321912408E0,-1.710422710E-2,-1.117883399E-1,1.326740970E0
1.516119270E0,-1.318247199E0,-5.375614017E-2,-1.020144969E-1,1.323280907E0
1.517964691E0,-1.320079803E0,-6.597344577E-2,-1.081231460E-1,1.326142450E0
1.520270001E0,-1.291369081E0,-9.101892263E-2,-1.075122803E-1,1.299029421E0
1.522191345E0,-1.287703991E0,-1.282816976E-1,-1.014036313E-1,1.298044860E0
1.524325270E0,-1.257771492E0,-1.698205322E-1,-9.346238524E-2,1.272620665E0
1.526278114E0,-1.246775985E0,-1.912008226E-1,-9.590584040E-2,1.264992506E0
1.528458578E0,-1.214400053E0,-2.315179259E-1,-1.050688252E-1,1.240728615E0
1.530559155E0,-1.187522054E0,-2.663372457E-1,-1.227839142E-1,1.223200738E0
1.532520231E0,-1.153924465E0,-2.968805134E-1,-1.331686229E-1,1.198921846E0
1.534345037E0,-1.139874578E0,-3.200933933E-1,-1.374446750E-1,1.191916470E0
1.536588308E0,-1.119716048E0,-3.714060783E-1,-1.398881376E-1,1.187971041E0
1.538528652E0,-1.095281363E0,-4.098905921E-1,-1.496619880E-1,1.179003932E0
1.540740347E0,-1.092227101E0,-4.276056588E-1,-1.466076523E-1,1.182074636E0
1.542525499E0,-1.073290229E0,-4.489859641E-1,-1.466076523E-1,1.172618487E0
1.544795962E0,-1.062294602E0,-4.740314186E-1,-1.514945775E-1,1.173084061E0
1.546713960E0,-1.055575132E0,-4.935791194E-1,-1.624901593E-1,1.176546752E0
1.548898347E0,-1.048855662E0,-5.131267905E-1,-1.722639948E-1,1.180284791E0
1.551041001E0,-1.034194827E0,-5.448917747E-1,-1.844813079E-1,1.183426947E0
1.552941347E0,-1.004873276E0,-5.613851547E-1,-1.869247705E-1,1.166132266E0
1.554831575E0,-9.798278809E-1,-5.937610269E-1,-2.009746730E-1,1.163187712E0
1.557009231E0,-9.572258592E-1,-6.078109145E-1,-2.064724565E-1,1.152539079E0
1.558854537E0,-9.327912331E-1,-6.444628239E-1,-2.180788964E-1,1.154551957E0
1.561159847E0,-8.827002645E-1,-6.798930168E-1,-2.254092693E-1,1.136760137E0
1.563138460E0,-8.729264140E-1,-7.018841505E-1,-2.302961946E-1,1.143537591E0
1.565214962E0,-8.283332586E-1,-7.507534027E-1,-2.357939780E-1,1.142525912E0
1.567061614E0,-7.947356701E-1,-7.880161405E-1,-2.327396572E-1,1.143128152E0
1.569317808E0,-7.470881939E-1,-8.332201838E-1,-2.364048511E-1,1.143802386E0
1.571417462E0,-7.208209634E-1,-8.619308472E-1,-2.357939780E-1,1.148088170E0
1.573377116E0,-6.658431292E-1,-9.156870246E-1,-2.309070677E-1,1.155485990E0
1.575190537E0,-6.133087277E-1,-9.694431424E-1,-2.223549485E-1,1.168507306E0
1.577444077E0,-5.943718553E-1,-9.963212013E-1,-2.150245607E-1,1.179902284E0
1.579543731E0,-5.369505286E-1,-1.048855662E0,-1.893682331E-1,1.193429679E0
1.581593962E0,-4.789183438E-1,-1.103833556E0,-1.582140923E-1,1.213607432E0
1.583573114E0,-4.263839424E-1,-1.172861218E0,-1.142318025E-1,1.253178203E0
1.585648770E0,-3.976732790E-1,-1.213789225E0,-9.651670605E-2,1.280915217E0
1.587591729E0,-3.591887653E-1,-1.288925648E0,-7.269296050E-2,1.340011254E0
1.589751616E0,-3.665191531E-1,-1.343292713E0,-4.520402849E-2,1.393131367E0
1.591894347E0,-3.866777122E-1,-1.389107585E0,-1.466076635E-2,1.441996697E0
1.593794962E0,-4.056145251E-1,-1.401935697E0,-7.330383174E-3,1.459452149E0
1.595724806E0,-4.324925840E-1,-1.440420270E0,1.588249579E-2,1.504032128E0
1.597863231E0,-4.599815309E-1,-1.472796082E0,2.993239649E-2,1.543245689E0
1.599740614E0,-4.557054639E-1,-1.485624313E0,3.115412779E-2,1.554257910E0
1.602013154E0,-4.526511431E-1,-1.489900351E0,3.970624134E-2,1.557649735E0
1.603991114E0,-4.367686510E-1,-1.471574426E0,5.314527452E-2,1.535943542E0
1.606067000E0,-4.300491214E-1,-1.455691934E0,6.597344577E-2,1.519320160E0
1.607929075E0,-4.294382632E-1,-1.447139740E0,7.208210230E-2,1.511233429E0
1.610169077E0,-4.386012554E-1,-1.451415777E0,6.719517708E-2,1.517726593E0
1.612269000E0,-4.557054639E-1,-1.466687441E0,5.558873713E-2,1.536857061E0
1.614201962E0,-4.642575979E-1,-1.476461291E0,4.764748737E-2,1.548464835E0
1.616146691E0,-4.752531648E-1,-1.500285029E0,3.909537569E-2,1.574245593E0
1.618269231E0,-4.740314186E-1,-1.516167521E0,4.214970022E-2,1.589102368E0
1.620277691E0,-4.697553813E-1,-1.545489073E0,4.459316283E-2,1.615919287E0
1.622417500E0,-4.612032473E-1,-1.557095528E0,4.948008433E-2,1.624716343E0
1.624246152E0,-4.459316432E-1,-1.574810624E0,6.169738993E-2,1.637891968E0
1.626472654E0,-4.282165468E-1,-1.592525721E0,7.941248268E-2,1.651003914E0
1.628441691E0,-4.068362415E-1,-1.605964780E0,9.407325089E-2,1.659363847E0
1.630575039E0,-3.885102868E-1,-1.608408213E0,1.007927656E-1,1.657732307E0
1.632717346E0,-3.652974069E-1,-1.596801758E0,1.233947799E-1,1.642694226E0
1.634617577E0,-3.359758854E-1,-1.580919266E0,1.557706445E-1,1.623714881E0
1.636567229E0,-3.347541690E-1,-1.577864885E0,1.728748679E-1,1.622221831E0
1.638684462E0,-3.292563558E-1,-1.582751870E0,2.076941878E-1,1.629923344E0
1.640566191E0,-3.353650272E-1,-1.599245191E0,2.419026345E-1,1.651838904E0
1.642835577E0,-3.536909819E-1,-1.621236324E0,2.767219543E-1,1.682284034E0
1.644832191E0,-3.604104817E-1,-1.629788518E0,2.938261926E-1,1.694827472E0
1.646890539E0,-3.885102868E-1,-1.653612256E0,3.249803185E-1,1.729446716E0
1.648766729E0,-4.019493461E-1,-1.668272972E0,3.543018401E-1,1.752206546E0
1.650992500E0,-4.135557711E-1,-1.668272972E0,3.695734739E-1,1.758052228E0
1.653092346E0,-4.318817258E-1,-1.659109950E0,4.092797041E-1,1.762576957E0
1.655053923E0,-4.489859641E-1,-1.631010175E0,4.459316432E-1,1.749467810E0
1.656889883E0,-4.630358517E-1,-1.598023534E0,4.813618064E-1,1.731990359E0
1.659120808E0,-4.752531648E-1,-1.581530094E0,4.972442985E-1,1.724631816E0
1.661120114E0,-4.844161272E-1,-1.548543453E0,5.235115290E-1,1.704907661E0
1.663270231E0,-4.899139404E-1,-1.517389297E0,5.522221923E-1,1.687434532E0
1.665097306E0,-4.929682612E-1,-1.500895858E0,5.632177591E-1,1.677176296E0
1.667324885E0,-4.923573732E-1,-1.468520045E0,5.888741016E-1,1.657027343E0
1.669332229E0,-4.886921942E-1,-1.433700681E0,6.078109145E-1,1.632100429E0
1.671426808E0,-4.783074856E-1,-1.392772794E0,6.279694438E-1,1.600918401E0
1.673569269E0,-4.691445231E-1,-1.372614264E0,6.395758986E-1,1.585315058E0
1.675469346E0,-4.569272101E-1,-1.330464482E0,6.524040699E-1,1.550660919E0
1.677432460E0,-4.471533597E-1,-1.284038782E0,6.621779203E-1,1.512342990E0
1.679536616E0,-4.440990388E-1,-1.252884626E0,6.658431292E-1,1.486704717E0
1.681415075E0,-4.557054639E-1,-1.200961113E0,6.621779203E-1,1.445148665E0
1.683686192E0,-4.618141353E-1,-1.138652802E0,6.511823535E-1,1.390626102E0
1.685721345E0,-4.764748812E-1,-1.072679400E0,6.359107494E-1,1.334935163E0
1.687740615E0,-4.789183438E-1,-1.028697014E0,6.261368990E-1,1.296004530E0
1.689552037E0,-4.703662395E-1,-8.784242272E-1,6.279694438E-1,1.177802676E0
1.691842962E0,-4.764748812E-1,-7.379252315E-1,6.206390858E-1,1.075525376E0
1.693942731E0,-5.051855445E-1,-6.383541822E-1,6.004805565E-1,1.011575699E0
1.695903692E0,-5.204572082E-1,-6.023131609E-1,5.864306092E-1,9.887151808E-1
1.697902615E0,-5.540547967E-1,-5.363397002E-1,5.503895879E-1,9.473994354E-1
1.699971154E0,-5.833762884E-1,-4.703662395E-1,5.100724697E-1,9.065021884E-1
1.701967191E0,-5.962044597E-1,-4.343251884E-1,4.899139404E-1,8.855020023E-1
1.704121115E0,-6.114761233E-1,-3.707951903E-1,4.495968223E-1,8.447067096E-1
1.705953306E0,-6.194173694E-1,-3.078760803E-1,4.086688459E-1,8.034150757E-1
1.708176577E0,-6.065891981E-1,-2.351831198E-1,3.732386529E-1,7.500457634E-1
1.710166768E0,-5.937610269E-1,-2.021963894E-1,3.585779071E-1,7.225051227E-1
1.712279192E0,-5.626068711E-1,-1.252273768E-1,3.439171314E-1,6.711835670E-1
1.714422231E0,-5.345070958E-1,-7.330382615E-2,3.695734739E-1,6.539540038E-1
1.716324731E0,-4.703662395E-1,-6.291911751E-2,4.159992337E-1,6.310773147E-1
1.718267921E0,-4.367686510E-1,-7.086037099E-2,4.294382632E-1,6.166078726E-1
1.720391500E0,-3.903428912E-1,-1.014036313E-1,4.495968223E-1,6.039764662E-1
1.722259575E0,-4.019493461E-1,-1.209513173E-1,4.544837475E-1,6.186662870E-1
1.724542423E0,-4.294382632E-1,-1.209513173E-1,4.544837475E-1,6.368688403E-1
1.726541921E0,-4.960225821E-1,-6.108652428E-2,4.599815309E-1,6.792296917E-1
1.728597885E0,-5.577199459E-1,6.047565863E-2,4.440990388E-1,7.154947936E-1
1.730480498E0,-6.133087277E-1,2.205223590E-1,4.074471295E-1,7.686292147E-1
1.732699077E0,-6.316346526E-1,3.005456924E-1,3.830125034E-1,7.974889500E-1
1.734798615E0,-6.432411075E-1,4.251621962E-1,3.200933933E-1,8.348543561E-1
1.736758923E0,-6.206390858E-1,4.893030524E-1,2.412917763E-1,8.263365375E-1
1.738757961E0,-5.986479521E-1,5.112941861E-1,2.101376504E-1,8.148367612E-1
1.740826269E0,-5.308418870E-1,5.528330207E-1,1.508837193E-1,7.811423395E-1
1.742859691E0,-4.538728893E-1,6.072000265E-1,1.172861308E-1,7.671039749E-1
1.744975154E0,-3.805690408E-1,6.707300544E-1,1.062905490E-1,7.784659796E-1
1.746810921E0,-3.439171314E-1,7.024950385E-1,1.062905490E-1,7.893516030E-1
1.749030192E0,-2.858849466E-1,7.806857824E-1,1.093448773E-1,8.385444507E-1
1.751085037E0,-2.522873580E-1,8.662069440E-1,1.056796908E-1,9.083675346E-1
1.753132115E0,-2.290744632E-1,9.798278809E-1,9.773843735E-2,1.010984959E0
1.755274577E0,-2.272418737E-1,1.048244715E0,9.651670605E-2,1.076926797E0
1.757175077E0,-2.290744632E-1,1.171639562E0,8.613199741E-2,1.196926520E0
1.759137383E0,-2.522873580E-1,1.284649611E0,8.491026610E-2,1.311938751E0
1.761242692E0,-2.681698501E-1,1.332297087E0,8.796459436E-2,1.361862095E0
1.763119768E0,-2.944370508E-1,1.419039965E0,8.918632567E-2,1.452006129E0
1.765392115E0,-3.170390725E-1,1.492954612E0,9.162978828E-2,1.528994200E0
1.767421883E0,-3.445279896E-1,1.566869378E0,9.346238524E-2,1.607020349E0
1.769446538E0,-3.573561609E-1,1.598023534E0,9.468411654E-2,1.640227948E0
1.771396614E0,-3.897320330E-1,1.659109950E0,8.979719132E-2,1.706634237E0
1.773578807E0,-4.208861589E-1,1.722640038E0,8.368854225E-2,1.775285225E0
1.775678000E0,-4.544837475E-1,1.777006984E0,7.635815442E-2,1.835794069E0
1.777638423E0,-4.789183438E-1,1.807550311E0,7.513642311E-2,1.871428970E0
1.779581114E0,-5.345070958E-1,1.858252048E0,7.391469181E-2,1.935009533E0
1.781705961E0,-6.163630486E-1,1.911397338E0,8.002334833E-2,2.009912169E0
1.783704421E0,-6.560692787E-1,1.934610248E0,8.918632567E-2,2.044773315E0
1.785855577E0,-7.501425147E-1,1.982257724E0,1.111774743E-1,2.122361870E0
1.787696460E0,-8.179485798E-1,2.025018215E0,1.386664063E-1,2.188370861E0
1.789910307E0,-8.729264140E-1,2.062281132E0,1.661553532E-1,2.245576005E0
1.791895075E0,-8.881980777E-1,2.081218004E0,1.820378453E-1,2.270132592E0
1.794012538E0,-9.040805697E-1,2.114204645E0,2.119702399E-1,2.309145803E0
1.796154654E0,-9.065240026E-1,2.131919622E0,2.461786866E-1,2.329693325E0
1.798073346E0,-9.022479653E-1,2.137417555E0,2.602286041E-1,2.334592924E0
1.800034152E0,-8.936958313E-1,2.151467323E0,2.883284092E-1,2.347474633E0
1.802142115E0,-8.918632865E-1,2.171625853E0,3.139847219E-1,2.368536546E0
1.804009960E0,-8.924741149E-1,2.219273329E0,3.371976018E-1,2.415654441E0
1.806291615E0,-8.998045325E-1,2.245540619E0,3.469714522E-1,2.443867848E0
1.808343730E0,-9.279043078E-1,2.291966438E0,3.628539443E-1,2.499155766E0
1.810347500E0,-9.731083512E-1,2.314568520E0,3.701843321E-1,2.537952666E0
1.812380692E0,-1.021977544E0,2.313957453E0,3.756821156E-1,2.557337335E0
1.814448923E0,-1.050077319E0,2.339613914E0,3.744603992E-1,2.591655115E0
1.816548538E0,-1.117883444E0,2.383596182E0,3.628539443E-1,2.657603646E0
1.818509269E0,-1.193019867E0,2.405587435E0,3.439171314E-1,2.707106629E0
1.820368075E0,-1.224173903E0,2.409252644E0,3.335324228E-1,2.722929291E0
1.822576961E0,-1.279762745E0,2.423913240E0,3.097086847E-1,2.758453833E0
1.824603037E0,-1.313360333E0,2.442239285E0,2.828305960E-1,2.787371743E0
1.826727730E0,-1.332907915E0,2.474615097E0,2.583959997E-1,2.822610827E0
1.828579960E0,-1.340238333E0,2.490497589E0,2.486221492E-1,2.839124866E0
1.830782961E0,-1.347568750E0,2.515542984E0,2.315179259E-1,2.863127414E0
1.832882500E0,-1.350012183E0,2.529592991E0,2.241875380E-1,2.876044792E0
1.834884730E0,-1.348179579E0,2.534479856E0,2.211332172E-1,2.879249246E0
1.837026653E0,-1.329853654E0,2.530814648E0,2.144137025E-1,2.866968217E0
1.838927192E0,-1.325577617E0,2.561968803E0,2.125810981E-1,2.892409185E0
1.840901460E0,-1.329853654E0,2.620611906E0,2.101376504E-1,2.946230700E0
1.842994384E0,-1.337184072E0,2.654820442E0,2.113593817E-1,2.980068055E0
1.845028038E0,-1.363451242E0,2.704911232E0,2.076941878E-1,3.036228078E0
1.847143423E0,-1.400714040E0,2.745228529E0,2.034181207E-1,3.088633748E0
1.849173883E0,-1.447139740E0,2.786156416E0,1.991420686E-1,3.145876438E0
1.851197346E0,-1.471574426E0,2.801428080E0,1.936442852E-1,3.170335737E0
1.853216229E0,-1.516778350E0,2.836247444E0,1.814269722E-1,3.221464244E0
1.855299076E0,-1.566258430E0,2.875342607E0,1.618792862E-1,3.278256470E0
1.857398576E0,-1.591914773E0,2.891836166E0,1.508837193E-1,3.304493146E0
1.859331384E0,-1.629788518E0,2.931542397E0,1.270599663E-1,3.356530302E0
1.861156191E0,-1.660942554E0,2.973081112E0,1.032362282E-1,3.407139443E0
1.863398269E0,-1.702481389E0,2.999348402E0,8.491026610E-2,3.449890356E0
1.865497499E0,-1.717142224E0,2.990185261E0,7.574728876E-2,3.448988687E0
1.867547730E0,-1.733024716E0,2.964529037E0,5.864306539E-2,3.434420780E0
1.869395152E0,-1.762346268E0,3.041497946E0,3.848451003E-2,3.515402563E0
1.871602192E0,-1.788002610E0,3.095865011E0,3.115412779E-2,3.575234829E0
1.873691652E0,-1.845423937E0,3.165503740E0,2.015855350E-2,3.664206572E0
1.875704230E0,-1.907732129E0,3.181997061E0,9.162978269E-3,3.710071580E0
1.877846538E0,-1.970651269E0,3.175888300E0,7.330383174E-3,3.737617778E0
1.879747422E0,-1.999361992E0,3.166725397E0,7.941247895E-3,3.745084936E0
1.881716075E0,-2.050674677E0,3.141680002E0,8.552113548E-3,3.751732001E0
1.883814653E0,-2.086715698E0,3.103806257E0,4.886921961E-3,3.740056092E0
1.885700844E0,-2.094656944E0,3.086091280E0,-1.221730490E-3,3.729818842E0
1.887965345E0,-2.103819847E0,3.045774221E0,-1.282817032E-2,3.701751358E0
1.889930460E0,-2.103819847E0,3.012787342E0,-2.871066704E-2,3.674747586E0
1.892019384E0,-2.090380907E0,2.992628813E0,-3.787364438E-2,3.650610081E0
1.894015844E0,-2.083050489E0,2.968805075E0,-4.581489414E-2,3.626982481E0
1.896121615E0,-2.059226751E0,2.907107592E0,-6.780604273E-2,3.563184955E0
1.898220961E0,-2.021353006E0,2.840523481E0,-8.613199741E-2,3.487385890E0
1.900181076E0,-1.972483873E0,2.772106409E0,-1.050688252E-1,3.403866336E0
1.902179961E0,-1.950492740E0,2.734843731E0,-1.148426682E-1,3.361098183E0
1.904247615E0,-1.895514846E0,2.666426897E0,-1.350012124E-1,3.274299048E0
1.906251998E0,-1.847256541E0,2.607172966E0,-1.557706445E-1,3.199058002E0
1.908398615E0,-1.820989251E0,2.581516504E0,-1.673770845E-1,3.163580946E0
1.910385192E0,-1.770898342E0,2.527760267E0,-1.881465018E-1,3.092095085E0
1.912453345E0,-1.723250866E0,2.461786985E0,-2.113593817E-1,3.012417882E0
1.914495921E0,-1.682933807E0,2.387872219E0,-2.357939780E-1,2.930835842E0
1.916556038E0,-1.657888293E0,2.351220369E0,-2.486221492E-1,2.887670998E0
1.918699307E0,-1.610240817E0,2.281581640E0,-2.681698501E-1,2.805424271E0
1.920600884E0,-1.569923639E0,2.208277941E0,-2.846632004E-1,2.724368704E0
1.922592921E0,-1.550375938E0,2.169793367E0,-2.968805134E-1,2.683245581E0
1.924668845E0,-1.515556693E0,2.088548183E0,-3.109304011E-1,2.599158194E0
1.926683960E0,-1.477683067E0,2.022574902E0,-3.237585723E-1,2.525703089E0
1.928819499E0,-1.445918083E0,1.945605755E0,-3.353650272E-1,2.447147433E0
1.930872115E0,-1.430035591E0,1.913840771E0,-3.402519524E-1,2.413205271E0
1.932874961E0,-1.391551018E0,1.868025899E0,-3.506366611E-1,2.355606305E0
1.934909691E0,-1.350012183E0,1.830763102E0,-3.555235863E-1,2.302308287E0
1.936978653E0,-1.307862520E0,1.784948230E0,-3.604104817E-1,2.241972406E0
1.939079845E0,-1.287093043E0,1.758681059E0,-3.604104817E-1,2.208950720E0
1.941041230E0,-1.237002134E0,1.704924941E0,-3.604104817E-1,2.137016390E0
1.942901614E0,-1.192408919E0,1.635897160E0,-3.622430861E-1,2.056506407E0
1.945110076E0,-1.166752577E0,1.598634362E0,-3.640756905E-1,2.012335585E0
1.947209884E0,-1.117883444E0,1.528384805E0,-3.677408695E-1,1.928952268E0
1.949260576E0,-1.072679400E0,1.464854836E0,-3.683517575E-1,1.852599203E0
1.951054652E0,-1.021977544E0,1.400714040E0,-3.762930036E-1,1.774270088E0
1.953315114E0,-9.999864101E-1,1.367727280E0,-3.854559660E-1,1.737592309E0
1.955345998E0,-9.492846131E-1,1.299921274E0,-4.037819207E-1,1.659510902E0
1.957416922E0,-9.095783234E-1,1.221730471E0,-4.269948006E-1,1.581860496E0
1.959558807E0,-8.723155856E-1,1.144150615E0,-4.557054639E-1,1.509199317E0
1.961458653E0,-8.564330935E-1,1.108109593E0,-4.709770977E-1,1.477566899E0
1.963394921E0,-8.216137290E-1,1.040914416E0,-5.064072609E-1,1.419507047E0
1.965525730E0,-7.935139537E-1,9.669997096E-1,-5.338962078E-1,1.360072790E0
1.967400998E0,-7.764097452E-1,9.279043078E-1,-5.516113043E-1,1.329696780E0
1.969675191E0,-7.489207983E-1,8.607091308E-1,-5.864306092E-1,1.282810754E0
1.971692344E0,-7.183775306E-1,7.892379165E-1,-6.218608022E-1,1.235181615E0
1.973728691E0,-6.884451509E-1,7.238753438E-1,-6.548475623E-1,1.194477948E0
1.975762384E0,-6.719517708E-1,6.933320761E-1,-6.688974500E-1,1.174586033E0
1.977830461E0,-6.395758986E-1,6.249151230E-1,-7.000515461E-1,1.135626879E0
1.979929730E0,-6.163630486E-1,5.577199459E-1,-7.293730974E-1,1.105866204E0
1.981890614E0,-5.968153477E-1,5.308418870E-1,-7.422012687E-1,1.090341410E0
1.983722037E0,-5.705481172E-1,4.612032473E-1,-7.654141784E-1,1.060232264E0
1.985958037E0,-5.485569835E-1,3.921754956E-1,-7.843509912E-1,1.034370756E0
1.988057345E0,-5.290092826E-1,3.371976018E-1,-7.977899909E-1,1.014899952E0
1.990107807E0,-5.192354321E-1,3.036000133E-1,-8.063421249E-1,1.005965220E0
1.991925344E0,-5.015203953E-1,2.278527319E-1,-8.210029006E-1,9.886785813E-1
1.994162691E0,-4.752531648E-1,1.521054506E-1,-8.283332586E-1,9.670251424E-1
1.996262499E0,-4.538728893E-1,7.391469181E-2,-8.313875794E-1,9.500890951E-1
1.998264922E0,-4.355469346E-1,3.543018550E-2,-8.319984674E-1,9.397754413E-1
2.000407537E0,-4.056145251E-1,-3.054326214E-2,-8.289441466E-1,9.233658170E-1
2.002307691E0,-3.640756905E-1,-8.491026610E-2,-8.203920126E-1,9.015563854E-1
2.004238883E0,-3.500257730E-1,-1.142318025E-1,-8.173376918E-1,8.964417711E-1
2.006375230E0,-3.127630055E-1,-1.789835095E-1,-8.093964458E-1,8.859900681E-1
2.008236998E0,-2.797762752E-1,-2.443460971E-1,-7.977899909E-1,8.800276410E-1
2.010525730E0,-2.467895597E-1,-2.999348342E-1,-7.898487449E-1,8.801857937E-1
2.012471344E0,-2.339613885E-1,-3.298672438E-1,-7.855727077E-1,8.835580393E-1
2.014580460E0,-1.960877478E-1,-3.824016452E-1,-7.721336484E-1,8.836695050E-1
2.016645960E0,-1.698205322E-1,-4.428772926E-1,-7.617489696E-1,8.973521060E-1
2.018714345E0,-1.569923609E-1,-4.734205604E-1,-7.556403279E-1,9.054092630E-1
2.020814307E0,-1.350012124E-1,-5.271766782E-1,-7.428121567E-1,9.208205457E-1
2.022775422E0,-1.142318025E-1,-5.791002512E-1,-7.299839854E-1,9.387665443E-1
2.024603960E0,-8.185594529E-2,-6.194173694E-1,-7.141014934E-1,9.488515248E-1
2.026843614E0,-7.819075137E-2,-6.401867867E-1,-7.073819637E-1,9.572576236E-1
2.028823921E0,-5.253441259E-2,-6.792821288E-1,-6.994407177E-1,9.764227530E-1
2.030993922E0,-4.153883830E-2,-7.024950385E-1,-6.908885837E-1,9.861804040E-1
2.032808537E0,-3.237585723E-2,-7.110471725E-1,-6.884451509E-1,9.902489603E-1
2.035048806E0,-2.260201424E-2,-7.183775306E-1,-6.872233748E-1,9.944109283E-1
2.037038690E0,-2.687807009E-2,-7.312057018E-1,-6.921103001E-1,1.007174700E0
2.039151922E0,-4.153883830E-2,-7.415903807E-1,-6.969972253E-1,1.018571009E0
2.041295614E0,-5.436700583E-2,-7.446447611E-1,-7.055493593E-1,1.027254345E0
2.043196960E0,-7.208210230E-2,-7.464773059E-1,-7.153232098E-1,1.036393503E0
2.045135114E0,-9.285151958E-2,-7.464773059E-1,-7.257078886E-1,1.045228067E0
2.047264845E0,-1.191187203E-1,-7.342600226E-1,-7.385360599E-1,1.048218757E0
2.049128267E0,-1.307251602E-1,-7.208209634E-1,-7.470881939E-1,1.046332977E0
2.051416691E0,-1.563815027E-1,-6.908885837E-1,-7.599163651E-1,1.038872028E0
2.053364306E0,-1.747074574E-1,-6.469063163E-1,-7.757988572E-1,1.025121624E0
2.055472691E0,-1.771509200E-1,-6.194173694E-1,-7.874053121E-1,1.017382647E0
2.057330152E0,-1.905899495E-1,-5.662720799E-1,-8.026769161E-1,1.000639210E0
2.059577191E0,-1.997529417E-1,-5.155702829E-1,-8.197811842E-1,9.888150203E-1
2.061677345E0,-2.089159191E-1,-4.654793143E-1,-8.399397135E-1,9.827591646E-1
2.063637576E0,-2.217440903E-1,-4.453207552E-1,-8.466592431E-1,9.819943435E-1
2.065490498E0,-2.278527319E-1,-4.086688459E-1,-8.643743396E-1,9.828886468E-1
2.067705614E0,-2.535090744E-1,-3.750712574E-1,-8.808676600E-1,9.903903945E-1
2.069709037E0,-2.663372457E-1,-3.494149148E-1,-8.949176073E-1,9.969472579E-1
2.071856729E0,-2.822197378E-1,-3.426954150E-1,-9.040805697E-1,1.007198990E0
2.073702152E0,-2.919935882E-1,-3.390302062E-1,-9.211847782E-1,1.024101134E0
2.075912999E0,-3.109304011E-1,-3.463605940E-1,-9.388998747E-1,1.047939097E0
2.078013306E0,-3.152064681E-1,-3.543018401E-1,-9.462302923E-1,1.058412338E0
2.080016652E0,-3.323107064E-1,-3.628539443E-1,-9.663888216E-1,1.084435680E0
2.082159999E0,-3.341432810E-1,-3.683517575E-1,-9.822713137E-1,1.100995769E0
2.084061345E0,-3.292563558E-1,-3.701843321E-1,-1.004262447E0,1.119816615E0
2.086126460E0,-3.378084898E-1,-3.793473244E-1,-1.015868902E0,1.135785453E0
2.088129652E0,-3.353650272E-1,-3.878994286E-1,-1.036638379E0,1.156527041E0
2.090009998E0,-3.384193480E-1,-4.031710625E-1,-1.067792416E0,1.190485281E0
2.092280691E0,-3.402519524E-1,-4.062253833E-1,-1.083064079E0,1.205743859E0
2.094333037E0,-3.445279896E-1,-4.025602043E-1,-1.121548533E0,1.240413385E0
2.096336614E0,-3.481931984E-1,-3.793473244E-1,-1.153924465E0,1.263599845E0
2.098200344E0,-3.585779071E-1,-3.646865487E-1,-1.188132882E0,1.293535519E0
2.100440229E0,-3.659082949E-1,-3.567453027E-1,-1.205237150E0,1.309103770E0
2.102540268E0,-3.872885704E-1,-3.481931984E-1,-1.238223910E0,1.343290509E0
2.104474037E0,-4.056145251E-1,-3.451388776E-1,-1.269377947E0,1.376577045E0
2.106430690E0,-4.092797041E-1,-3.371976018E-1,-1.288925648E0,1.393750847E0
2.108542614E0,-4.245513380E-1,-3.335324228E-1,-1.315192819E0,1.421696123E0
2.110546498E0,-4.386012554E-1,-3.347541690E-1,-1.337794900E0,1.447109743E0
2.112693383E0,-4.502076805E-1,-3.310889602E-1,-1.362229466E0,1.472404827E0
2.114528729E0,-4.618141353E-1,-3.274237812E-1,-1.368949056E0,1.481384537E0
2.116747883E0,-4.795292318E-1,-3.262020350E-1,-1.389107585E0,1.505315892E0
2.118744921E0,-4.960225821E-1,-3.249803185E-1,-1.403768301E0,1.523881902E0
2.120850998E0,-5.149593949E-1,-3.219259977E-1,-1.415985584E0,1.540725382E0
2.122994191E0,-5.283984542E-1,-3.219259977E-1,-1.423316002E0,1.551988955E0
2.124896152E0,-5.436700583E-1,-3.286454976E-1,-1.433089852E0,1.567587803E0
2.126956537E0,-5.607742667E-1,-3.457497358E-1,-1.439198494E0,1.582814886E0
2.128964345E0,-5.595525503E-1,-3.555235863E-1,-1.439198494E0,1.584546743E0
2.130838421E0,-5.711590052E-1,-3.775147200E-1,-1.437365890E0,1.592093174E0
2.133115729E0,-5.729916096E-1,-3.964515328E-1,-1.429424644E0,1.590203765E0
2.135091152E0,-5.760459304E-1,-4.031710625E-1,-1.420872569E0,1.585324786E0
2.137173075E0,-5.791002512E-1,-4.025602043E-1,-1.419650793E0,1.585187747E0
2.139056652E0,-5.803219676E-1,-4.117231667E-1,-1.414153099E0,1.583072500E0
2.141276383E0,-5.791002512E-1,-4.239404798E-1,-1.412320495E0,1.584213310E0
2.143376652E0,-5.894849896E-1,-4.520402849E-1,-1.404379249E0,1.588746061E0
2.145338383E0,-5.839871764E-1,-4.630358517E-1,-1.404990077E0,1.590421434E0
2.147293421E0,-5.980370641E-1,-4.905247986E-1,-1.403768301E0,1.602756485E0
2.149406921E0,-5.925393105E-1,-5.497786999E-1,-1.408044338E0,1.623560381E0
2.151479113E0,-5.943718553E-1,-5.644394755E-1,-1.406822681E0,1.628195283E0
2.153558268E0,-5.754350424E-1,-5.448917747E-1,-1.400103092E0,1.608826033E0
2.155389460E0,-5.705481172E-1,-5.149593949E-1,-1.393383622E0,1.591297034E0
2.157614998E0,-5.723807216E-1,-5.198463202E-1,-1.393383622E0,1.593542533E0
2.159632844E0,-5.772676468E-1,-5.259549618E-1,-1.388496757E0,1.593044193E0
2.161718460E0,-5.571091175E-1,-5.314527750E-1,-1.382387996E0,1.582342944E0
2.163861460E0,-5.650503635E-1,-5.424483418E-1,-1.370781660E0,1.578788927E0
2.165776037E0,-5.601634383E-1,-5.400048494E-1,-1.369559884E0,1.575145260E0
2.167707883E0,-5.748242140E-1,-5.619960427E-1,-1.363451242E0,1.582801857E0
2.169844998E0,-5.711590052E-1,-5.974262357E-1,-1.367727280E0,1.598067154E0
2.171711729E0,-5.583308339E-1,-6.224716902E-1,-1.368949056E0,1.604127751E0
2.173996998E0,-5.516113043E-1,-6.194173694E-1,-1.371392488E0,1.602707168E0
2.176049998E0,-5.338962078E-1,-5.913175344E-1,-1.374446750E0,1.588648940E0
2.178053537E0,-5.418374538E-1,-5.687155724E-1,-1.384220600E0,1.591569005E0
2.180088344E0,-5.448917747E-1,-5.479460955E-1,-1.401324868E0,1.600269776E0
2.182157575E0,-5.711590052E-1,-5.607742667E-1,-1.409876943E0,1.621247477E0
2.184257960E0,-5.729916096E-1,-5.742133260E-1,-1.414763927E0,1.630827182E0
2.186220498E0,-6.102544069E-1,-5.919284225E-1,-1.419650793E0,1.654750154E0
2.188219921E0,-6.023131609E-1,-6.065891981E-1,-1.423316002E0,1.660289144E0
2.190288998E0,-6.243042946E-1,-6.493497491E-1,-1.428202987E0,1.688542188E0
2.192353075E0,-6.114761233E-1,-6.493497491E-1,-1.429424644E0,1.684877728E0
2.194440729E0,-6.047565937E-1,-6.517932415E-1,-1.428202987E0,1.682358089E0
2.196424421E0,-6.078109145E-1,-6.719517708E-1,-1.431868076E0,1.694461412E0
2.198497114E0,-6.041457057E-1,-6.976081133E-1,-1.439198494E0,1.709661200E0
2.200499075E0,-6.267477274E-1,-7.073819637E-1,-1.452637553E0,1.733019855E0
2.202600998E0,-6.316346526E-1,-7.171558142E-1,-1.454470158E0,1.740332794E0
2.204744190E0,-6.511823535E-1,-7.348709106E-1,-1.464244008E0,1.762975958E0
2.206646114E0,-6.762278080E-1,-7.507534027E-1,-1.480737329E0,1.792623149E0
2.208623690E0,-6.817256212E-1,-7.513642311E-1,-1.483180761E0,1.796976127E0
2.210714613E0,-7.037167549E-1,-7.635815740E-1,-1.483180761E0,1.810552198E0
2.212593229E0,-7.079927921E-1,-7.550294399E-1,-1.474017859E0,1.801125175E0
2.214865613E0,-7.165449262E-1,-7.165449262E-1,-1.471574426E0,1.786730129E0
2.216834998E0,-7.208209634E-1,-7.043276429E-1,-1.470352650E0,1.782581612E0
2.218921575E0,-7.391469479E-1,-7.134906054E-1,-1.470352650E0,1.793695618E0
2.220808613E0,-7.379252315E-1,-7.391469479E-1,-1.474017859E0,1.806543801E0
2.223025344E0,-7.452555895E-1,-7.605272532E-1,-1.470352650E0,1.815418550E0
2.225125421E0,-7.342600226E-1,-7.501425147E-1,-1.466687441E0,1.803614045E0
2.227086267E0,-7.263187766E-1,-7.299839854E-1,-1.475850463E0,1.799597225E0
2.228947575E0,-7.464773059E-1,-7.342600226E-1,-1.483791709E0,1.816040744E0
2.231154383E0,-7.226535678E-1,-7.147123218E-1,-1.482569933E0,1.797513696E0
2.233196690E0,-7.281513810E-1,-7.000515461E-1,-1.476461291E0,1.788914348E0
2.235305613E0,-7.037167549E-1,-6.670648456E-1,-1.469130874E0,1.760266543E0
2.237137075E0,-7.134906054E-1,-6.768386960E-1,-1.461189628E0,1.761321831E0
2.239360575E0,-7.141014934E-1,-7.086036801E-1,-1.457524419E0,1.770999026E0
2.241459998E0,-7.165449262E-1,-7.348709106E-1,-1.441641927E0,1.769690180E0
2.243463075E0,-7.000515461E-1,-7.440338731E-1,-1.419039965E0,1.748523089E0
2.245605383E0,-6.878342628E-1,-7.757988572E-1,-1.403157473E0,1.744657770E0
2.247506152E0,-6.860016584E-1,-7.776314616E-1,-1.389718413E0,1.733962581E0
2.249520190E0,-6.743952036E-1,-7.531968355E-1,-1.354288220E0,1.690032824E0
2.251573729E0,-6.585127115E-1,-7.159340382E-1,-1.331686258E0,1.649117591E0
2.253440267E0,-6.334672570E-1,-6.652322412E-1,-1.312749386E0,1.602225218E0
2.255723883E0,-6.401867867E-1,-6.554583907E-1,-1.303586483E0,1.593362025E0
2.257692690E0,-6.194173694E-1,-6.249151230E-1,-1.277319193E0,1.551045167E0
2.259779383E0,-6.395758986E-1,-6.291912198E-1,-1.274875760E0,1.558924990E0
2.261720075E0,-6.279694438E-1,-6.346889734E-1,-1.273653984E0,1.555432476E0
2.263913152E0,-6.481280327E-1,-6.236934066E-1,-1.246165156E0,1.536877031E0
2.266013652E0,-6.310238242E-1,-5.681046844E-1,-1.200961113E0,1.470796245E0
2.267974806E0,-6.420193911E-1,-5.290092826E-1,-1.152702689E0,1.421535511E0
2.269930498E0,-6.401867867E-1,-5.094616413E-1,-1.128268123E0,1.393692664E0
2.272042690E0,-6.517932415E-1,-4.740314186E-1,-1.078788042E0,1.346597139E0
2.274029883E0,-6.493497491E-1,-4.117231667E-1,-1.032973170E0,1.287712947E0
2.276193652E0,-6.475171447E-1,-3.597996235E-1,-9.944885969E-1,1.240057173E0
2.278180921E0,-6.481280327E-1,-3.323107064E-1,-9.779952765E-1,1.219415890E0
2.280249767E0,-6.548475623E-1,-2.944370508E-1,-9.498954415E-1,1.190722410E0
2.282265113E0,-6.652322412E-1,-2.706133127E-1,-9.297369123E-1,1.174809017E0
2.284353190E0,-6.652322412E-1,-2.583959997E-1,-9.224064946E-1,1.166248759E0
2.286496344E0,-6.682865620E-1,-2.553416789E-1,-9.108000994E-1,1.158172320E0
2.288396152E0,-6.646214128E-1,-2.437352389E-1,-8.943067193E-1,1.140575731E0
2.290417536E0,-6.603453159E-1,-2.199114859E-1,-8.833111525E-1,1.124569069E0
2.292463767E0,-6.572909951E-1,-2.034181207E-1,-8.680394888E-1,1.107656507E0
2.294320421E0,-6.493497491E-1,-1.673770845E-1,-8.417723179E-1,1.076220619E0
2.296614421E0,-6.462954283E-1,-1.545489132E-1,-8.252789378E-1,1.059560509E0
2.298650767E0,-6.487388611E-1,-1.606575549E-1,-8.100073338E-1,1.050135630E0
2.300669613E0,-6.462954283E-1,-1.600466967E-1,-7.770205736E-1,1.023266191E0
2.302703498E0,-6.407976151E-1,-1.404990107E-1,-7.373143435E-1,9.869113418E-1
2.304772267E0,-6.322455406E-1,-8.979719132E-2,-6.860016584E-1,9.372279523E-1
2.306871536E0,-6.328563690E-1,-8.613199741E-2,-6.621779203E-1,9.200029907E-1
2.308832344E0,-6.469063163E-1,-9.040805697E-2,-6.102544069E-1,8.939081832E-1
2.310788844E0,-6.462954283E-1,-8.307767659E-2,-5.528330207E-1,8.545314680E-1
2.312899998E0,-6.487388611E-1,-7.330382615E-2,-5.229006410E-1,8.364571962E-1
2.314979344E0,-6.432411075E-1,-3.604105115E-2,-4.758640230E-1,8.009398530E-1
2.317049805E0,-6.536257863E-1,-7.941247895E-3,-4.520402849E-1,7.947516286E-1
2.318881921E0,-6.725626588E-1,1.221730467E-2,-4.379903674E-1,8.026987944E-1
2.321104575E0,-6.805039048E-1,1.527163107E-2,-4.300491214E-1,8.051465916E-1
2.323203844E0,-6.969972253E-1,-1.832595794E-3,-4.147774875E-1,8.110788215E-1
2.325207036E0,-7.330383062E-1,-5.619960278E-2,-4.202753007E-1,8.468381676E-1
2.327349536E0,-7.635815740E-1,-1.417207420E-1,-4.263839424E-1,8.859711367E-1
2.329250498E0,-7.562511563E-1,-1.325577646E-1,-4.184426963E-1,8.744036039E-1
2.331225998E0,-7.122688890E-1,-3.726277873E-2,-3.866777122E-1,8.113169159E-1
2.333318959E0,-6.597344875E-1,1.252273768E-1,-3.433062732E-1,7.541821313E-1
2.335210498E0,-6.389650702E-1,2.229658216E-1,-3.152064681E-1,7.465555814E-1
2.337468805E0,-6.053674817E-1,4.178318381E-1,-2.437352389E-1,7.748936053E-1
2.339440729E0,-5.870414972E-1,5.821545720E-1,-1.740965992E-1,8.448853715E-1
2.341523882E0,-5.986479521E-1,7.147123218E-1,-9.957103431E-2,9.376073081E-1
2.343503190E0,-6.065891981E-1,7.715228200E-1,-5.619960278E-2,9.830342377E-1
2.345627190E0,-6.340781450E-1,8.784242272E-1,4.337143153E-2,1.084234891E0
2.347726882E0,-6.511823535E-1,9.663888216E-1,1.502728462E-1,1.174958612E0
2.349660805E0,-6.640105247E-1,9.944885969E-1,1.991420686E-1,1.212260331E0
2.351616459E0,-6.731734872E-1,1.073901057E0,2.828305960E-1,1.298622028E0
2.353728228E0,-6.860016584E-1,1.166752577E0,3.628539443E-1,1.401275432E0
2.355716190E0,-6.939429045E-1,1.262047648E0,4.343251884E-1,1.504313595E0
2.357879036E0,-6.957755089E-1,1.315192819E0,4.691445231E-1,1.560106500E0
2.359719498E0,-7.104362845E-1,1.425148606E0,5.229006410E-1,1.676064839E0
2.361935113E0,-7.134906054E-1,1.548543453E0,5.717698932E-1,1.798326022E0
2.363960806E0,-7.189884186E-1,1.675603390E0,6.163630486E-1,1.924706334E0
2.366038613E0,-7.214318514E-1,1.739744186E0,6.340781450E-1,1.987266677E0
2.368182151E0,-7.324274182E-1,1.867415071E0,6.701191664E-1,2.114887388E0
2.370083036E0,-7.409795523E-1,2.000583649E0,6.902777553E-1,2.242291019E0
2.372104190E0,-7.525860071E-1,2.068389654E0,6.963863969E-1,2.308587333E0
2.374151382E0,-7.757988572E-1,2.188730240E0,7.012733221E-1,2.425734570E0
2.376023267E0,-7.965682745E-1,2.296853304E0,7.037167549E-1,2.530864158E0
2.378302190E0,-8.222246170E-1,2.387261391E0,7.055493593E-1,2.621615946E0
2.380354997E0,-8.338310719E-1,2.426356792E0,7.024950385E-1,2.660071582E0
2.382358344E0,-8.625417352E-1,2.494773626E0,6.860016584E-1,2.727356223E0
2.384270421E0,-8.979719281E-1,2.550973177E0,6.621779203E-1,2.784294764E0
2.386461536E0,-9.443976879E-1,2.593733788E0,6.255260110E-1,2.830304709E0
2.388561767E0,-9.676105380E-1,2.612670660E0,5.962044597E-1,2.849171439E0
2.390521651E0,-1.026253581E0,2.644435644E0,5.259549618E-1,2.884937592E0
2.392339690E0,-1.078177214E0,2.673146248E0,4.404338300E-1,2.915846177E0
2.394589651E0,-1.105055213E0,2.683531046E0,3.958406746E-1,2.929023001E0
2.396604844E0,-1.156367898E0,2.696359158E0,2.803871334E-1,2.947228591E0
2.398739959E0,-1.206458807E0,2.685363531E0,1.453859210E-1,2.947517127E0
2.400585921E0,-1.232726097E0,2.668870211E0,1.282817032E-2,2.939837818E0
2.402796074E0,-1.243721604E0,2.660318136E0,-5.619960278E-2,2.937225632E0
2.404864767E0,-1.243721604E0,2.608394623E0,-1.985312104E-1,2.896546319E0
2.406900690E0,-1.225395679E0,2.514321327E0,-3.353650272E-1,2.817068691E0
2.409044651E0,-1.189354658E0,2.375044107E0,-4.593706727E-1,2.695629876E0
2.410946074E0,-1.166141748E0,2.290133715E0,-5.106833577E-1,2.620190165E0
2.413011074E0,-1.106887817E0,2.083050489E0,-6.145304441E-1,2.437611054E0
2.415014497E0,-1.039692640E0,1.833817482E0,-6.982190013E-1,2.220665918E0
2.416896613E0,-1.003651619E0,1.694540143E0,-7.342600226E-1,2.101885023E0
2.419166113E0,-9.327912331E-1,1.373835921E0,-8.045095205E-1,1.845199228E0
2.421218843E0,-8.674286604E-1,1.016479731E0,-8.625417352E-1,1.590484759E0
2.423223036E0,-8.014551997E-1,6.493497491E-1,-9.083566070E-1,1.374444346E0
2.425130190E0,-7.678576112E-1,4.685336351E-1,-9.285151958E-1,1.292775908E0
2.427326574E0,-6.969972253E-1,1.136209369E-1,-9.596692920E-1,1.191503252E0
2.429426536E0,-6.175847650E-1,-2.083050460E-1,-9.822713137E-1,1.178837931E0
2.431388151E0,-5.766568184E-1,-3.579670191E-1,-9.969320893E-1,1.206046045E0
2.433263536E0,-4.905247986E-1,-6.346889734E-1,-1.019534111E0,1.297264227E0
2.435456536E0,-4.062253833E-1,-8.747590184E-1,-1.053131700E0,1.428043689E0
2.437491998E0,-3.158173263E-1,-1.057407737E0,-1.083064079E0,1.546246910E0
2.439607651E0,-2.669481039E-1,-1.128878951E0,-1.093448758E0,1.594132731E0
2.441444882E0,-1.710422635E-1,-1.217454433E0,-1.105055213E0,1.653057100E0
2.443662959E0,-8.185594529E-2,-1.268767118E0,-1.114218235E0,1.690548039E0
2.445763190E0,-3.665191587E-3,-1.276708364E0,-1.117883444E0,1.696956415E0
2.447766036E0,3.115412779E-2,-1.273653984E0,-1.123381138E0,1.698572999E0
2.449909074E0,8.185594529E-2,-1.257771492E0,-1.129489779E0,1.692464677E0
2.451810305E0,1.185078546E-1,-1.224173903E0,-1.135598540E0,1.673986231E0
2.453792959E0,1.301143020E-1,-1.203404546E0,-1.140485406E0,1.663075222E0
2.455879074E0,1.392772794E-1,-1.156367898E0,-1.151481032E0,1.637831934E0
2.457755152E0,1.313360333E-1,-1.097113967E0,-1.160643935E0,1.602498847E0
2.460029497E0,1.087340117E-1,-1.029307961E0,-1.163698316E0,1.557399029E0
2.461989306E0,9.285151958E-2,-9.889908433E-1,-1.167363524E0,1.532795450E0
2.464084805E0,5.436700583E-2,-9.077457786E-1,-1.165530920E0,1.478316778E0
2.466025113E0,5.497787148E-3,-8.167268038E-1,-1.167363524E0,1.424714180E0
2.468187189E0,-2.260201424E-2,-7.727445364E-1,-1.168585181E0,1.401155343E0
2.470287113E0,-7.819075137E-2,-6.786713004E-1,-1.173472166E0,1.357845887E0
2.472227113E0,-1.386664063E-1,-5.864306092E-1,-1.177137375E0,1.322415075E0
2.474117190E0,-1.936442852E-1,-4.850270152E-1,-1.175304770E0,1.286114543E0
2.476293574E0,-2.186897546E-1,-4.324925840E-1,-1.174082994E0,1.270175548E0
2.478393305E0,-2.571742535E-1,-3.298672438E-1,-1.164919972E0,1.237735649E0
2.480443612E0,-2.901609838E-1,-2.376265824E-1,-1.157589674E0,1.216829340E0
2.482269267E0,-3.029891551E-1,-1.960877478E-1,-1.154535294E0,1.209629934E0
2.484498882E0,-3.262020350E-1,-1.276708394E-1,-1.148426652E0,1.200662894E0
2.486598766E0,-3.445279896E-1,-7.452555746E-2,-1.142928839E0,1.196051807E0
2.488602036E0,-3.634648323E-1,-4.214970022E-2,-1.140485406E0,1.197743813E0
2.490744920E0,-3.701843321E-1,-3.298672289E-2,-1.139874578E0,1.198932282E0
2.492649497E0,-3.775147200E-1,-2.748893574E-2,-1.134376764E0,1.195861049E0
2.494714420E0,-3.854559660E-1,-2.871066704E-2,-1.131322384E0,1.195529565E0
2.496717420E0,-3.860668242E-1,-3.909537569E-2,-1.132544160E0,1.197176810E0
2.498632498E0,-3.866777122E-1,-5.619960278E-2,-1.132544160E0,1.198054390E0
2.500867035E0,-3.836233616E-1,-7.391469181E-2,-1.136209369E0,1.201499894E0
2.502851575E0,-3.732386529E-1,-9.040805697E-2,-1.136820197E0,1.199933694E0
2.504921920E0,-3.652974069E-1,-9.896016866E-2,-1.136820197E0,1.198163374E0
2.506842882E0,-3.512475193E-1,-1.154535338E-1,-1.139263630E0,1.197758722E0
2.509054728E0,-3.384193480E-1,-1.386664063E-1,-1.142318010E0,1.199435894E0
2.511155074E0,-3.298672438E-1,-1.582140923E-1,-1.156367898E0,1.212860591E0
2.513116651E0,-3.237585723E-1,-1.710422635E-1,-1.164309144E0,1.220528923E0
2.515116882E0,-3.176499307E-1,-1.912008226E-1,-1.178969979E0,1.235892166E0
2.517185035E0,-3.103195429E-1,-2.150245607E-1,-1.196684957E0,1.254826150E0
2.519279729E0,-3.042109013E-1,-2.370157093E-1,-1.214400053E0,1.274161767E0
2.521336035E0,-3.023782969E-1,-2.455678284E-1,-1.222341299E0,1.282908588E0
2.523177921E0,-2.962696552E-1,-2.663372457E-1,-1.242499948E0,1.304805486E0
2.525392112E0,-2.932153046E-1,-2.822197378E-1,-1.257771492E0,1.321972890E0
2.527412690E0,-2.913827300E-1,-2.895501256E-1,-1.265712738E0,1.330703538E0
2.529496189E0,-2.938261926E-1,-3.005456924E-1,-1.292590857E0,1.359210310E0
2.531639497E0,-2.968805134E-1,-3.200933933E-1,-1.320690632E0,1.390978636E0
2.533541651E0,-3.042109013E-1,-3.329215646E-1,-1.346346974E0,1.419870141E0
2.535517844E0,-3.036000133E-1,-3.402519524E-1,-1.362840414E0,1.437107635E0
2.537609381E0,-3.115412891E-1,-3.420845270E-1,-1.389718413E0,1.464717402E0
2.539484421E0,-3.164281845E-1,-3.341432810E-1,-1.414763927E0,1.487728301E0
2.541759920E0,-3.164281845E-1,-3.280346394E-1,-1.424537778E0,1.495674230E0
2.543709729E0,-3.298672438E-1,-3.243694305E-1,-1.456913590E0,1.528602347E0
2.545815074E0,-3.408628106E-1,-3.207042515E-1,-1.486235142E0,1.558182778E0
2.547686575E0,-3.530801237E-1,-3.127630055E-1,-1.509448051E0,1.581429635E0
2.549918881E0,-3.573561609E-1,-3.078760803E-1,-1.520443559E0,1.591929559E0
2.552019151E0,-3.726277947E-1,-3.036000133E-1,-1.540602207E0,1.613840018E0
2.553979112E0,-3.830125034E-1,-3.017674387E-1,-1.557095528E0,1.631658251E0
2.555978612E0,-3.897320330E-1,-3.005456924E-1,-1.568091035E0,1.643510957E0
2.558046843E0,-4.043927789E-1,-3.042109013E-1,-1.585195303E0,1.664007795E0
2.560147151E0,-4.190535545E-1,-3.048217595E-1,-1.604132175E0,1.685752717E0
2.562198228E0,-4.361577928E-1,-2.987131178E-1,-1.615127683E0,1.699441255E0
2.564185420E0,-4.447098970E-1,-2.901609838E-1,-1.616349459E0,1.701336493E0
2.566254228E0,-4.593706727E-1,-2.834414840E-1,-1.623068929E0,1.710471642E0
2.568310498E0,-4.728097022E-1,-2.840523422E-1,-1.632842779E0,1.723487827E0
2.570358228E0,-4.893030524E-1,-2.913827300E-1,-1.642005801E0,1.737959845E0
2.572501766E0,-4.990769029E-1,-2.950479090E-1,-1.645060062E0,1.744234397E0
2.574403420E0,-5.100724697E-1,-3.011565804E-1,-1.645671010E0,1.749028954E0
2.576469035E0,-5.192354321E-1,-3.042109013E-1,-1.643838406E0,1.750529751E0
2.578472112E0,-5.247332454E-1,-3.054326177E-1,-1.645060062E0,1.753526924E0
2.580442267E0,-5.314527750E-1,-3.127630055E-1,-1.642616630E0,1.754551835E0
2.582623497E0,-5.436700583E-1,-3.115412891E-1,-1.645671010E0,1.760928216E0
2.584671267E0,-5.467243791E-1,-3.060434759E-1,-1.642616630E0,1.758055616E0
2.586679997E0,-5.497786999E-1,-2.993239760E-1,-1.641394973E0,1.756709685E0
2.588568575E0,-5.528330207E-1,-2.883284092E-1,-1.638340592E0,1.752973907E0
2.590784112E0,-5.546656251E-1,-2.767219543E-1,-1.639562368E0,1.752824508E0
2.592884920E0,-5.534439087E-1,-2.614503205E-1,-1.641394973E0,1.751808747E0
2.594819343E0,-5.540547967E-1,-2.541199327E-1,-1.640173197E0,1.749777635E0
2.596673575E0,-5.589417219E-1,-2.351831198E-1,-1.641394973E0,1.749829822E0
2.598888497E0,-5.571091175E-1,-2.058615834E-1,-1.645671010E0,1.749566413E0
2.600961767E0,-5.577199459E-1,-1.857030392E-1,-1.642616630E0,1.744627911E0
2.603040304E0,-5.583308339E-1,-1.429424733E-1,-1.638951421E0,1.737333483E0
2.604863036E0,-5.613851547E-1,-1.014036313E-1,-1.645671010E0,1.741743110E0
2.607096727E0,-5.668829679E-1,-7.635815442E-2,-1.643838406E0,1.740514743E0
2.609139305E0,-5.668829679E-1,-5.986479297E-2,-1.638340592E0,1.734675759E0
2.611200574E0,-5.668829679E-1,-2.748893574E-2,-1.625512362E0,1.721743993E0
2.613343881E0,-5.687155724E-1,2.443460980E-3,-1.606575608E0,1.704267748E0
2.615244881E0,-5.681046844E-1,1.710422710E-2,-1.597412586E0,1.695512447E0
2.617310266E0,-5.687155724E-1,4.520402849E-2,-1.576643229E0,1.676688605E0
2.619313881E0,-5.717698932E-1,7.880161703E-2,-1.552819490E0,1.656616695E0
2.621348535E0,-5.693264008E-1,1.105666086E-1,-1.519832730E0,1.626729558E0
2.623465266E0,-5.699372888E-1,1.288925707E-1,-1.499063253E0,1.608922759E0
2.625469959E0,-5.656611919E-1,1.563815027E-1,-1.453859329E0,1.567843968E0
2.627520843E0,-5.461135507E-1,1.802052408E-1,-1.408044338E0,1.520954568E0
2.629555150E0,-5.375614166E-1,1.863138974E-1,-1.381166339E0,1.493755536E0
2.631624304E0,-5.192354321E-1,1.893682331E-1,-1.331075311E0,1.441258910E0
2.633724804E0,-4.941899776E-1,1.850921661E-1,-1.280373573E0,1.384860762E0
2.635687343E0,-4.648684561E-1,1.777617931E-1,-1.224784851E0,1.322043822E0
2.637687689E0,-4.495968223E-1,1.728748679E-1,-1.191798091E0,1.285459339E0
2.639756727E0,-4.092797041E-1,1.624901593E-1,-1.129489779E0,1.212295381E0
2.641857035E0,-3.671300113E-1,1.527163088E-1,-1.065348983E0,1.137134632E0
2.643908073E0,-3.225368559E-1,1.386664063E-1,-1.002429843E0,1.062131812E0
2.645751113E0,-2.993239760E-1,1.307251602E-1,-9.737191796E-1,1.027040871E0
2.647964035E0,-2.510656118E-1,1.130100712E-1,-9.114109278E-1,9.520898576E-1
2.650064650E0,-2.064724565E-1,9.224065393E-2,-8.527678847E-1,8.822427550E-1
2.652067881E0,-1.838704348E-1,7.941248268E-2,-8.240572214E-1,8.480477483E-1
2.654211343E0,-1.362229437E-1,4.948008433E-2,-7.764097452E-1,7.898209048E-1
2.656112843E0,-9.346238524E-2,1.099557430E-2,-7.330383062E-1,7.390543136E-1
2.658060652E0,-5.742133409E-2,-3.359758854E-2,-7.018841505E-1,7.050300478E-1
2.660182112E0,-4.153883830E-2,-5.864306539E-2,-6.884451509E-1,6.921858204E-1
2.662058152E0,-9.162978269E-3,-1.099557430E-1,-6.652322412E-1,6.743205174E-1
2.664334073E0,1.527163107E-2,-1.576032341E-1,-6.462954283E-1,6.654094850E-1
2.666296728E0,3.787364438E-2,-2.131919712E-1,-6.401867867E-1,6.758138437E-1
2.668390996E0,4.703662544E-2,-2.382374406E-1,-6.340781450E-1,6.789879353E-1
2.670289075E0,6.108652428E-2,-2.803871334E-1,-6.261368990E-1,6.887640556E-1
2.672495381E0,7.330382615E-2,-3.243694305E-1,-6.285803318E-1,7.111274231E-1
2.674596112E0,7.757988572E-2,-3.433062732E-1,-6.285803318E-1,7.204103479E-1
2.676558304E0,8.246681094E-2,-3.799581826E-1,-6.340781450E-1,7.437903531E-1
2.678482421E0,8.857546002E-2,-4.074471295E-1,-6.432411075E-1,7.665623900E-1
2.680627150E0,8.796459436E-2,-4.324925840E-1,-6.511823535E-1,7.866549832E-1
2.682727458E0,8.857546002E-2,-4.398229718E-1,-6.572909951E-1,7.958148723E-1
2.684778458E0,8.674286306E-2,-4.532620013E-1,-6.695083380E-1,8.131495439E-1
2.686633536E0,8.918632567E-2,-4.544837475E-1,-6.829473376E-1,8.251828545E-1
2.688834496E0,8.735372871E-2,-4.550946057E-1,-6.902777553E-1,8.313995149E-1
2.690858805E0,9.162978828E-2,-4.483750761E-1,-6.982190013E-1,8.348329178E-1
2.692938035E0,9.162978828E-2,-4.392121136E-1,-7.086036801E-1,8.387028522E-1
2.695081381E0,9.407325089E-2,-4.178318381E-1,-7.159340382E-1,8.342630092E-1
2.696983535E0,9.468411654E-2,-4.037819207E-1,-7.177666426E-1,8.289715765E-1
2.699048881E0,1.014036313E-1,-3.756821156E-1,-7.232644558E-1,8.212984971E-1
2.701051881E0,1.069014147E-1,-3.451388776E-1,-7.269296646E-1,8.117730561E-1
2.703087035E0,1.093448773E-1,-3.255911767E-1,-7.269296646E-1,8.039854811E-1
2.705203342E0,1.197295859E-1,-2.858849466E-1,-7.257078886E-1,7.891243983E-1
2.707227575E0,1.270599663E-1,-2.486221492E-1,-7.208209634E-1,7.730071600E-1
2.709259650E0,1.398881376E-1,-2.028072625E-1,-7.141014934E-1,7.554074527E-1
2.711135690E0,1.447750628E-1,-1.777617931E-1,-7.086036801E-1,7.447672451E-1
2.713364650E0,1.612684280E-1,-1.264491081E-1,-6.994407177E-1,7.288444281E-1
2.715466265E0,1.734857261E-1,-7.574728876E-2,-6.866125464E-1,7.122301158E-1
2.717427496E0,1.881465018E-1,-2.260201424E-2,-6.750060916E-1,7.011014056E-1
2.719428035E0,1.979203373E-1,6.108652451E-4,-6.707300544E-1,6.993222712E-1
2.721497265E0,2.138028294E-1,4.459316283E-2,-6.572909951E-1,6.926266327E-1
2.723598073E0,2.315179259E-1,8.857546002E-2,-6.456845403E-1,6.916319019E-1
2.725650804E0,2.406809032E-1,1.136209369E-1,-6.383541822E-1,6.916162783E-1
2.727505152E0,2.608394623E-1,1.496619880E-1,-6.285803318E-1,6.968135829E-1
2.729707573E0,2.816088796E-1,1.838704348E-1,-6.194173694E-1,7.048331542E-1
2.731806575E0,3.060434759E-1,2.199114859E-1,-6.096435189E-1,7.167209296E-1
2.733811881E0,3.164281845E-1,2.327396572E-1,-6.023131609E-1,7.190797506E-1
2.735955573E0,3.445279896E-1,2.614503205E-1,-5.949827433E-1,7.355679918E-1
2.737858419E0,3.671300113E-1,2.858849466E-1,-5.870414972E-1,7.490876900E-1
2.739857882E0,3.958406746E-1,3.066543639E-1,-5.784893632E-1,7.650991321E-1
2.741928958E0,4.050036669E-1,3.158173263E-1,-5.766568184E-1,7.722056980E-1
2.743876536E0,4.312708676E-1,3.378084898E-1,-5.674937963E-1,7.887701477E-1
2.746081919E0,4.575380683E-1,3.585779071E-1,-5.522221923E-1,8.017908387E-1
2.748135688E0,4.691445231E-1,3.701843321E-1,-5.467243791E-1,8.099633140E-1
2.750139458E0,4.917465150E-1,3.921754956E-1,-5.338962078E-1,8.250220695E-1
2.752205535E0,5.131267905E-1,4.141666293E-1,-5.210680366E-1,8.404433346E-1
2.754274804E0,5.314527750E-1,4.398229718E-1,-5.076290369E-1,8.564890762E-1
2.756375727E0,5.369505286E-1,4.526511431E-1,-4.996877611E-1,8.619146049E-1
2.758316804E0,5.546656251E-1,4.770857692E-1,-4.856378734E-1,8.781280834E-1
2.760294421E0,5.693264008E-1,5.039638281E-1,-4.709770977E-1,8.943889071E-1
2.762385688E0,5.772676468E-1,5.149593949E-1,-4.642575979E-1,9.021952293E-1
2.764485267E0,5.827654600E-1,5.387831330E-1,-4.483750761E-1,9.115607795E-1
2.766538265E0,5.925393105E-1,5.650503635E-1,-4.367686510E-1,9.279825442E-1
2.768382575E0,5.980370641E-1,5.870414972E-1,-4.208861589E-1,9.377692724E-1
2.770595034E0,5.974262357E-1,5.955936313E-1,-4.190535545E-1,9.419425472E-1
2.772601036E0,5.986479521E-1,6.139195561E-1,-4.068362415E-1,9.491007951E-1
2.774698919E0,6.017022729E-1,6.328563690E-1,-3.988949955E-1,9.600364714E-1
2.776842188E0,5.968153477E-1,6.524040699E-1,-3.891211748E-1,9.660408471E-1
2.778743419E0,5.955936313E-1,6.615670323E-1,-3.854559660E-1,9.700407278E-1
2.780809727E0,5.852088928E-1,6.841690540E-1,-3.762930036E-1,9.757833608E-1
2.782814457E0,5.772676468E-1,7.024950385E-1,-3.695734739E-1,9.814895658E-1
2.784703767E0,5.711590052E-1,7.141014934E-1,-3.634648323E-1,9.840072339E-1
2.786965996E0,5.613851547E-1,7.367035151E-1,-3.561344445E-1,9.923291307E-1
2.789018034E0,5.461135507E-1,7.568620443E-1,-3.518583775E-1,9.974389616E-1
2.791022150E0,5.308418870E-1,7.776314616E-1,-3.426954150E-1,1.001970033E0
2.792943305E0,5.216789246E-1,7.904596329E-1,-3.353650272E-1,1.004711418E0
2.795126765E0,5.057964325E-1,8.112290502E-1,-3.292563558E-1,1.011104520E0
2.797226996E0,4.893030524E-1,8.387179971E-1,-3.164281845E-1,1.021269872E0
2.799188765E0,4.825835526E-1,8.491026759E-1,-3.121521473E-1,1.025329802E0
2.801111382E0,4.654793143E-1,8.759807348E-1,-3.011565804E-1,1.036681497E0
2.803257727E0,4.495968223E-1,9.089674950E-1,-2.877175212E-1,1.054106532E0
2.805258075E0,4.367686510E-1,9.388998747E-1,-2.724458873E-1,1.070759819E0
2.807409496E0,4.306600094E-1,9.553932548E-1,-2.663372457E-1,1.081286199E0
2.809268267E0,4.153883755E-1,9.871582389E-1,-2.504547536E-1,1.099889301E0
2.811466573E0,4.031710625E-1,1.021977544E0,-2.382374406E-1,1.124162837E0
2.813472344E0,3.909537494E-1,1.051909924E0,-2.247984111E-1,1.144505853E0
2.815571996E0,3.848451078E-1,1.070235968E0,-2.193006277E-1,1.158276111E0
2.817715265E0,3.707951903E-1,1.102000952E0,-2.083050460E-1,1.181222317E0
2.819622073E0,3.640756905E-1,1.129489779E0,-2.009746730E-1,1.203615009E0
2.821611305E0,3.616322279E-1,1.144761443E0,-1.966986060E-1,1.216530711E0
2.823690457E0,3.579670191E-1,1.172250390E0,-1.899790913E-1,1.240323917E0
2.825585805E0,3.536909819E-1,1.200350165E0,-1.789835095E-1,1.264109539E0
2.827841496E0,3.524692357E-1,1.223563075E0,-1.631010175E-1,1.283722362E0
2.829853959E0,3.543018401E-1,1.238834739E0,-1.545489132E-1,1.297739061E0
2.831896496E0,3.530801237E-1,1.273043156E0,-1.356120855E-1,1.328041825E0
2.833930727E0,3.549126983E-1,1.301142931E0,-1.233947799E-1,1.354312454E0
2.835999342E0,3.561344445E-1,1.328631878E0,-1.087340117E-1,1.379825168E0
2.838098803E0,3.567453027E-1,1.337794900E0,-1.038470939E-1,1.388433154E0
2.840063419E0,3.579670191E-1,1.357342601E0,-9.407325089E-2,1.406900529E0
2.842062880E0,3.579670191E-1,1.374446750E0,-8.552113175E-2,1.422869677E0
2.844131342E0,3.573561609E-1,1.383609772E0,-7.880161703E-2,1.431184517E0
2.846230919E0,3.597996235E-1,1.391551018E0,-7.635815442E-2,1.439340325E0
2.848281380E0,3.622430861E-1,1.397659659E0,-7.147123665E-2,1.445607386E0
2.850223921E0,3.671300113E-1,1.400103092E0,-7.086037099E-2,1.449170213E0
2.852337073E0,3.671300113E-1,1.399492264E0,-7.086037099E-2,1.448580075E0
2.854329882E0,3.707951903E-1,1.395827055E0,-7.086037099E-2,1.445974907E0
2.856440496E0,3.769038618E-1,1.393994451E0,-6.719517708E-2,1.445611373E0
2.858583957E0,3.824016452E-1,1.386053205E0,-6.475171447E-2,1.439294024E0
2.860485726E0,3.824016452E-1,1.386664152E0,-6.047565863E-2,1.439696424E0
2.862469421E0,3.885102868E-1,1.381166339E0,-5.925392732E-2,1.435991548E0
2.864554457E0,3.940080702E-1,1.377501130E0,-5.558873713E-2,1.433820711E0
2.866449382E0,3.970624208E-1,1.374446750E0,-5.375614017E-2,1.431660629E0
2.868706111E0,4.031710625E-1,1.373225093E0,-4.581489414E-2,1.431919364E0
2.870661805E0,4.068362415E-1,1.370781660E0,-4.459316283E-2,1.430575631E0
2.872761957E0,4.129449129E-1,1.372614264E0,-3.665191308E-2,1.433853822E0
2.874661767E0,4.117231667E-1,1.372614264E0,-3.604105115E-2,1.433486952E0
2.876864572E0,4.227187634E-1,1.372003317E0,-3.115412779E-2,1.435985666E0
2.878965034E0,4.269948006E-1,1.372614264E0,-2.260201424E-2,1.437673583E0
2.880925572E0,4.300491214E-1,1.375057697E0,-2.382374369E-2,1.440934936E0
2.882808959E0,4.337143302E-1,1.382387996E0,-1.832595654E-2,1.448944627E0
2.884992726E0,4.392121136E-1,1.393994451E0,-1.282817032E-2,1.461606093E0
2.887107688E0,4.453207552E-1,1.410487890E0,-8.552113548E-3,1.479141576E0
2.889142188E0,4.447098970E-1,1.420872569E0,-4.276056774E-3,1.488846545E0
2.891128803E0,4.489859641E-1,1.438587666E0,2.443460980E-3,1.507026489E0
2.893197342E0,4.514294267E-1,1.462411404E0,1.038470957E-2,1.530536992E0
2.895180151E0,4.569272101E-1,1.486845970E0,1.954768784E-2,1.555594911E0
2.897299342E0,4.544837475E-1,1.499674201E0,2.565634064E-2,1.567238474E0
2.899442111E0,4.581489265E-1,1.525941372E0,3.176499158E-2,1.593551544E0
2.901342611E0,4.587597847E-1,1.550986886E0,3.970624134E-2,1.617899084E0
2.903306613E0,4.581489265E-1,1.562593341E0,4.459316283E-2,1.628983406E0
2.905409649E0,4.538728893E-1,1.582141042E0,5.436700583E-2,1.646853560E0
2.907273382E0,4.483750761E-1,1.598023534E0,6.597344577E-2,1.661045430E0
2.909559880E0,4.410447180E-1,1.599245191E0,7.391469181E-2,1.660592968E0
2.911533536E0,4.349360466E-1,1.599856019E0,7.757988572E-2,1.659737113E0
2.913615072E0,4.306600094E-1,1.596190929E0,8.429940045E-2,1.655415330E0
2.915494228E0,4.233296216E-1,1.593136549E0,8.979719132E-2,1.650865097E0
2.917717765E0,4.147774875E-1,1.589471340E0,9.529497474E-2,1.645460616E0
2.919817880E0,4.111123085E-1,1.580919266E0,9.834930301E-2,1.636457039E0
2.921778649E0,3.988949955E-1,1.562593341E0,1.020144969E-1,1.615927636E0
2.923707036E0,3.897320330E-1,1.550375938E0,1.056796908E-1,1.602100123E0
2.925846918E0,3.860668242E-1,1.541213036E0,1.038470939E-1,1.592221540E0
2.927843074E0,3.762930036E-1,1.519221902E0,1.007927656E-1,1.568372020E0
2.929997265E0,3.665191531E-1,1.496619821E0,9.896016866E-2,1.544020820E0
2.931829305E0,3.610213697E-1,1.486235142E0,9.712757170E-2,1.532535511E0
2.934053380E0,3.524692357E-1,1.460578799E0,9.590584040E-2,1.505563988E0
2.936152880E0,3.414736688E-1,1.441641927E0,9.407325089E-2,1.484515237E0
2.938155418E0,3.378084898E-1,1.427592039E0,9.162978828E-2,1.469874016E0
2.940298072E0,3.359758854E-1,1.423926830E0,9.101892263E-2,1.465855333E0
2.942198072E0,3.323107064E-1,1.414153099E0,8.918632567E-2,1.455408394E0
2.944262880E0,3.323107064E-1,1.406822681E0,9.162978828E-2,1.448439326E0
2.946265765E0,3.329215646E-1,1.406211853E0,8.857546002E-2,1.447796310E0
2.948173998E0,3.347541690E-1,1.406822681E0,9.101892263E-2,1.448963373E0
2.950414918E0,3.310889602E-1,1.402546644E0,9.896016866E-2,1.444489565E0
2.952464459E0,3.255911767E-1,1.381777167E0,1.050688252E-1,1.423501743E0
2.954470149E0,3.200933933E-1,1.367727280E0,1.069014147E-1,1.408746111E0
2.956352882E0,3.127630055E-1,1.333518863E0,1.117883399E-1,1.374259760E0
2.958573495E0,3.084869385E-1,1.299310327E0,1.166752651E-1,1.340516555E0
2.960673957E0,3.054326177E-1,1.267545342E0,1.160643995E-1,1.308980987E0
2.962634688E0,3.078760803E-1,1.249830246E0,1.172861308E-1,1.292524414E0
2.964634072E0,3.097086847E-1,1.211345792E0,1.166752651E-1,1.255743292E0
2.966702341E0,3.127630055E-1,1.178969979E0,1.185078546E-1,1.225493787E0
2.968802264E0,3.182607889E-1,1.141096234E0,1.142318025E-1,1.190142618E0
2.970852764E0,3.237585723E-1,1.123992085E0,1.166752651E-1,1.175496039E0
2.972677613E0,3.390302062E-1,1.087950945E0,1.154535338E-1,1.145385637E0
2.974908457E0,3.512475193E-1,1.056185961E0,1.105666086E-1,1.118538591E0
2.976925844E0,3.591887653E-1,1.040914416E0,1.075122803E-1,1.106380713E0
2.979011841E0,3.817907870E-1,1.017090678E0,1.014036313E-1,1.091109687E0
2.981154072E0,4.007275999E-1,9.969320893E-1,9.224065393E-2,1.078408336E0
2.983055072E0,4.257730842E-1,9.749409556E-1,7.880161703E-2,1.066771897E0
2.984999882E0,4.367686510E-1,9.669997096E-1,7.269296050E-2,1.063550450E0
2.987123457E0,4.630358517E-1,9.456194043E-1,6.230825558E-2,1.054741948E0
2.989012190E0,4.868595898E-1,9.169087410E-1,4.825835302E-2,1.039270306E0
2.991273649E0,4.948008358E-1,9.022479653E-1,4.581489414E-2,1.030037991E0
2.993325341E0,5.174028873E-1,8.655960560E-1,3.481931984E-2,1.009046414E0
2.995328418E0,5.326744914E-1,8.228355050E-1,2.138028294E-2,9.804374017E-1
2.997291036E0,5.485569835E-1,7.800748944E-1,9.162978269E-3,9.536852548E-1
2.999460072E0,5.589417219E-1,7.593054771E-1,2.443460980E-3,9.428502673E-1
3.001559610E0,5.742133260E-1,7.177666426E-1,-4.886921961E-3,9.192027953E-1
3.003520610E0,5.888741016E-1,6.737843752E-1,-1.404990070E-2,8.949611676E-1
3.005515344E0,5.968153477E-1,6.517932415E-1,-2.260201424E-2,8.840440260E-1
3.007587957E0,6.145304441E-1,6.157521605E-1,-2.932153270E-2,8.704356049E-1
3.009628536E0,6.291912198E-1,5.797111392E-1,-3.726277873E-2,8.563498763E-1
3.011737803E0,6.475171447E-1,5.479460955E-1,-4.581489414E-2,8.494835965E-1
3.013588690E0,6.566801667E-1,5.363397002E-1,-5.009094998E-2,8.493516461E-1
3.015793995E0,6.743952036E-1,5.210680366E-1,-5.864306539E-2,8.542597957E-1
3.017790344E0,6.902777553E-1,5.027421117E-1,-6.658431143E-2,8.565433327E-1
3.019897572E0,7.073819637E-1,4.838052690E-1,-7.391469181E-2,8.601861209E-1
3.022040572E0,7.104362845E-1,4.752531648E-1,-7.391469181E-2,8.579327868E-1
3.023941841E0,7.250970602E-1,4.538728893E-1,-8.063421398E-2,8.592253621E-1
3.025895344E0,7.342600226E-1,4.294382632E-1,-8.857546002E-2,8.552196296E-1
3.028010033E0,7.379252315E-1,4.178318381E-1,-9.101892263E-2,8.528783832E-1
3.029871113E0,7.440338731E-1,3.964515328E-1,-9.651670605E-2,8.485727410E-1
3.032160649E0,7.495316267E-1,3.720169365E-1,-9.957103431E-2,8.426794476E-1
3.034117382E0,7.562511563E-1,3.439171314E-1,-1.056796908E-1,8.374741798E-1
3.036216764E0,7.568620443E-1,3.274237812E-1,-1.081231460E-1,8.317073411E-1
3.038087767E0,7.599163651E-1,2.956587672E-1,-1.105666086E-1,8.228681326E-1
3.040319995E0,7.635815740E-1,2.608394623E-1,-1.148426682E-1,8.150355106E-1
3.042419918E0,7.703011036E-1,2.327396572E-1,-1.172861308E-1,8.131959018E-1
3.044380264E0,7.721336484E-1,2.150245607E-1,-1.172861308E-1,8.100505967E-1
3.046276151E0,7.794640660E-1,1.802052408E-1,-1.215621829E-1,8.092067247E-1
3.048449110E0,7.843509912E-1,1.453859210E-1,-1.246165112E-1,8.073864120E-1
3.050549880E0,7.892379165E-1,1.264491081E-1,-1.252273768E-1,8.090536210E-1
3.052600226E0,7.977899909E-1,8.918632567E-2,-1.282816976E-1,8.129448101E-1
3.054544190E0,8.032878041E-1,5.497787148E-2,-1.319468915E-1,8.159067623E-1
3.056656533E0,8.161159754E-1,2.015855350E-2,-1.362229437E-1,8.276523080E-1
3.058685420E0,8.179485798E-1,3.054326167E-3,-1.398881376E-1,8.298300423E-1
3.060760341E0,8.289441466E-1,-3.054326214E-2,-1.484402567E-1,8.426836885E-1
3.062903379E0,8.387179971E-1,-6.108652428E-2,-1.545489132E-1,8.550232796E-1
3.064804456E0,8.448266387E-1,-7.696902007E-2,-1.582140923E-1,8.629530569E-1
3.066779767E0,8.491026759E-1,-1.136209369E-1,-1.661553532E-1,8.726354754E-1
3.068872649E0,8.558222055E-1,-1.466076523E-1,-1.722639948E-1,8.852120283E-1
3.070746113E0,8.607091308E-1,-1.783726513E-1,-1.820378453E-1,8.976495907E-1
3.073023610E0,8.600982428E-1,-1.960877478E-1,-1.850921661E-1,9.013758938E-1
3.075001420E0,8.588765264E-1,-2.254092693E-1,-1.930334121E-1,9.087024400E-1
3.077079764E0,8.552113175E-1,-2.541199327E-1,-2.003637999E-1,9.143899552E-1
3.078963420E0,8.503243923E-1,-2.803871334E-1,-2.089159191E-1,9.194097987E-1
3.081182995E0,8.423831463E-1,-2.944370508E-1,-2.107485086E-1,9.169064706E-1
3.083283033E0,8.307767510E-1,-3.164281845E-1,-2.138028294E-1,9.143459170E-1
3.085216572E0,8.106181622E-1,-3.378084898E-1,-2.217440903E-1,9.057520755E-1
3.087100690E0,8.051204085E-1,-3.463605940E-1,-2.223549485E-1,9.042268833E-1
3.089284072E0,7.806857824E-1,-3.597996235E-1,-2.260201424E-1,8.888257224E-1
3.091333805E0,7.574729323E-1,-3.701843321E-1,-2.296853364E-1,8.738175077E-1
3.093433879E0,7.250970602E-1,-3.750712574E-1,-2.309070677E-1,8.483880413E-1
3.095308728E0,7.122688890E-1,-3.744603992E-1,-2.315179259E-1,8.373458728E-1
3.097489033E0,6.792821288E-1,-3.756821156E-1,-2.321287990E-1,8.102129608E-1
3.099497228E0,6.420193911E-1,-3.720169365E-1,-2.302961946E-1,7.769310373E-1
3.101591649E0,6.236934066E-1,-3.695734739E-1,-2.284636050E-1,7.601142262E-1
3.103733302E0,5.900958180E-1,-3.597996235E-1,-2.266310006E-1,7.273447972E-1
3.105633649E0,5.485569835E-1,-3.494149148E-1,-2.260201424E-1,6.885424109E-1
3.107698341E0,5.100724697E-1,-3.371976018E-1,-2.229658216E-1,6.508378482E-1
3.109700995E0,4.905247986E-1,-3.304781020E-1,-2.193006277E-1,6.308114768E-1
3.111594997E0,4.532620013E-1,-3.127630055E-1,-2.150245607E-1,5.911875346E-1
3.113850572E0,4.196644127E-1,-2.974913716E-1,-2.089159191E-1,5.552163513E-1
3.115903341E0,3.824016452E-1,-2.791654170E-1,-1.991420686E-1,5.136359720E-1
3.117905648E0,3.683517575E-1,-2.712241709E-1,-1.973094791E-1,4.981732617E-1
3.119798113E0,3.353650272E-1,-2.535090744E-1,-1.905899495E-1,4.615853996E-1
3.122008379E0,3.060434759E-1,-2.327396572E-1,-1.753183305E-1,4.225717385E-1
3.124108187E0,2.913827300E-1,-2.260201424E-1,-1.710422635E-1,4.065027134E-1
3.126069648E0,2.706133127E-1,-2.076941878E-1,-1.600466967E-1,3.768068282E-1
3.127945997E0,2.510656118E-1,-1.899790913E-1,-1.490511149E-1,3.483421184E-1
3.130137879E0,2.302961946E-1,-1.777617931E-1,-1.368338168E-1,3.214950789E-1
3.132237995E0,2.223549485E-1,-1.716531366E-1,-1.319468915E-1,3.103490046E-1
3.134288110E0,2.076941878E-1,-1.612684280E-1,-1.185078546E-1,2.884241548E-1
3.136132844E0,1.979203373E-1,-1.545489132E-1,-1.075122803E-1,2.731606065E-1
3.138343187E0,1.918116808E-1,-1.484402567E-1,-1.026253626E-1,2.633594421E-1
3.140417613E0,1.838704348E-1,-1.417207420E-1,-8.979719132E-2,2.489109099E-1
3.142445456E0,1.783726513E-1,-1.380555481E-1,-7.757988572E-2,2.385262580E-1
3.144588456E0,1.753183305E-1,-1.343903542E-1,-6.475171447E-2,2.301957185E-1
3.146489418E0,1.704314053E-1,-1.313360333E-1,-5.742133409E-2,2.226953686E-1
3.148481497E0,1.685988009E-1,-1.282816976E-1,-4.948008433E-2,2.175546560E-1
3.150558495E0,1.716531366E-1,-1.246165112E-1,-3.237585723E-2,2.145746264E-1
3.152450305E0,1.710422635E-1,-1.221730486E-1,-2.565634064E-2,2.117544746E-1
3.154710033E0,1.722639948E-1,-1.191187203E-1,-1.221730467E-2,2.097937463E-1
3.156762879E0,1.734857261E-1,-1.154535338E-1,-1.221730490E-3,2.083945975E-1
3.158767071E0,1.814269722E-1,-1.136209369E-1,1.221730467E-2,2.144171776E-1
3.160671497E0,1.838704348E-1,-1.136209369E-1,1.710422710E-2,2.168192996E-1
3.162869841E0,1.863138974E-1,-1.111774743E-1,2.932153270E-2,2.189361811E-1
3.164970071E0,1.918116808E-1,-1.093448773E-1,4.092797264E-2,2.245509341E-1
3.166931687E0,1.979203373E-1,-1.062905490E-1,4.825835302E-2,2.297803503E-1
3.168815728E0,1.979203373E-1,-1.062905490E-1,5.009094998E-2,2.301722051E-1
3.170999879E0,2.052507252E-1,-1.062905490E-1,5.558873713E-2,2.377302015E-1
3.173098764E0,2.089159191E-1,-1.062905490E-1,5.558873713E-2,2.409017429E-1
3.175149725E0,2.089159191E-1,-1.056796908E-1,5.253441259E-2,2.399456664E-1
3.177003151E0,2.119702399E-1,-1.069014147E-1,5.131268129E-2,2.428832771E-1
3.179205841E0,2.162462920E-1,-1.081231460E-1,4.214970022E-2,2.454173399E-1
3.181256651E0,2.223549485E-1,-1.117883399E-1,3.115412779E-2,2.508165380E-1
3.183309110E0,2.254092693E-1,-1.111774743E-1,2.504547499E-2,2.525807699E-1
3.185451341E0,2.284636050E-1,-1.160643995E-1,3.665191587E-3,2.562810904E-1
3.187352417E0,2.321287990E-1,-1.130100712E-1,-1.771509275E-2,2.587834616E-1
3.189416917E0,2.376265824E-1,-1.142318025E-1,-4.581489414E-2,2.676084862E-1
3.191419956E0,2.370157093E-1,-1.154535338E-1,-6.230825558E-2,2.709027199E-1
3.193308805E0,2.376265824E-1,-1.136209369E-1,-9.712757170E-2,2.807309658E-1
3.195570033E0,2.406809032E-1,-1.099557430E-1,-1.398881376E-1,2.993096283E-1
3.197623302E0,2.449569702E-1,-1.050688252E-1,-1.618792862E-1,3.118465625E-1
3.199626071E0,2.474004179E-1,-9.101892263E-2,-2.089159191E-1,3.363588445E-1
3.201524536E0,2.498438805E-1,-7.513642311E-2,-2.590068579E-1,3.676302479E-1
3.203729225E0,2.498438805E-1,-5.375614017E-2,-3.139847219E-1,4.048432942E-1
3.205829071E0,2.528982162E-1,-4.031710699E-2,-3.433062732E-1,4.283014991E-1
3.207788648E0,2.535090744E-1,-6.108652335E-3,-4.007275999E-1,4.742222852E-1
3.209673536E0,2.516764700E-1,3.420845419E-2,-4.587597847E-1,5.243775395E-1
3.211856417E0,2.535090744E-1,5.986479297E-2,-4.880813360E-1,5.532395818E-1
3.213931074E0,2.516764700E-1,1.111774743E-1,-5.430592299E-1,6.087814086E-1
3.216007417E0,2.504547536E-1,1.649336219E-1,-5.992587805E-1,6.701057896E-1
3.217873920E0,2.480112910E-1,2.211332172E-1,-6.462954283E-1,7.267099014E-1
3.220062956E0,2.467895597E-1,2.541199327E-1,-6.682865620E-1,7.563656231E-1
3.222101843E0,2.419026345E-1,3.237585723E-1,-7.098253965E-1,8.168161307E-1
3.224166763E0,2.449569702E-1,4.092797041E-1,-7.452555895E-1,8.848274900E-1
3.226310187E0,2.712241709E-1,5.064072609E-1,-7.727445364E-1,9.628836811E-1
3.228211340E0,2.797762752E-1,5.632177591E-1,-7.825183868E-1,1.003904395E0
3.230265151E0,3.219259977E-1,6.896668673E-1,-7.965682745E-1,1.101724898E0
3.232280956E0,3.744603992E-1,8.374962807E-1,-8.026769161E-1,1.218979427E0
3.234183036E0,4.172209501E-1,9.156870246E-1,-7.990117669E-1,1.284903052E0
3.236431802E0,4.893030524E-1,1.077566266E0,-7.855727077E-1,1.420454510E0
3.238430151E0,5.803219676E-1,1.243110776E0,-7.666358948E-1,1.571568828E0
3.240487340E0,6.615670323E-1,1.406822681E0,-7.373143435E-1,1.720596826E0
3.242424420E0,7.037167549E-1,1.483791709E0,-7.226535678E-1,1.794180394E0
3.244620648E0,7.770205736E-1,1.621236324E0,-6.908885837E-1,1.926004991E0
3.246720071E0,8.436049223E-1,1.741576791E0,-6.566801667E-1,2.043523385E0
3.248681186E0,8.747590184E-1,1.794722080E0,-6.407976151E-1,2.096867251E0
3.250539382E0,9.156870246E-1,1.875356317E0,-6.029239893E-1,2.172317053E0
3.252749417E0,9.498954415E-1,1.927279830E0,-5.650503635E-1,2.221708983E0
3.254801382E0,9.615018964E-1,1.958433986E0,-5.277875662E-1,2.244662400E0
3.256899725E0,9.651671052E-1,1.963320851E0,-5.082398653E-1,2.245992891E0
3.258886802E0,9.547823668E-1,1.958433986E0,-4.752531648E-1,2.230008658E0
3.260954994E0,9.340129495E-1,1.937664509E0,-4.416555762E-1,2.195901543E0
3.263002690E0,8.961393237E-1,1.890627980E0,-4.123340547E-1,2.132500696E0
3.265058071E0,8.741481900E-1,1.860695481E0,-3.988949955E-1,2.094144205E0
3.267201148E0,8.179485798E-1,1.778228760E0,-3.701843321E-1,1.992027570E0
3.269101994E0,7.556403279E-1,1.682322860E0,-3.420845270E-1,1.875693027E0
3.271166917E0,7.214318514E-1,1.625512362E0,-3.286454976E-1,1.808524873E0
3.273169648E0,6.493497491E-1,1.502117634E0,-3.011565804E-1,1.663943439E0
3.275081613E0,5.699372888E-1,1.356731653E0,-2.791654170E-1,1.497825965E0
3.277320148E0,4.813618064E-1,1.197906733E0,-2.596177161E-1,1.316848923E0
3.279300805E0,4.367686510E-1,1.112385631E0,-2.510656118E-1,1.221148061E0
3.281375763E0,3.341432810E-1,9.236282706E-1,-2.315179259E-1,1.009129062E0
3.283234305E0,2.315179259E-1,7.189884186E-1,-2.162462920E-1,7.856890955E-1
3.285479417E0,1.783726513E-1,6.157521605E-1,-2.076941878E-1,6.738726895E-1
3.287579802E0,6.658431143E-2,3.976732790E-1,-1.942551434E-1,4.475629209E-1
3.289540725E0,-4.703662544E-2,1.740965992E-1,-1.832595766E-1,2.571111479E-1
3.291540263E0,-1.643227488E-1,-5.070181563E-2,-1.698205322E-1,2.416850286E-1
