"Time (s)","Gyroscope x (rad/s)","Gyroscope y (rad/s)","Gyroscope z (rad/s)","Absolute (rad/s)"
5.893039000E-3,-3.316998184E-1,-1.600466967E-1,-8.674286306E-2,3.783702405E-1
8.276253000E-3,-3.207042515E-1,-2.015855312E-1,-7.880161703E-2,3.869077903E-1
1.001765400E-2,-3.042109013E-1,-2.425135076E-1,-6.902777404E-2,3.951226486E-1
1.237833000E-2,-2.974913716E-1,-2.626720667E-1,-6.658431143E-2,4.024067611E-1
1.424542300E-2,-2.803871334E-1,-3.036000133E-1,-5.742133409E-2,4.172374890E-1
1.648517600E-2,-2.608394623E-1,-3.402519524E-1,-5.253441259E-2,4.319357368E-1
1.842546200E-2,-2.419026345E-1,-3.775147200E-1,-4.764748737E-2,4.508930377E-1
2.057275300E-2,-2.321287990E-1,-3.933972120E-1,-4.398229718E-2,4.588895163E-1
2.235303900E-2,-2.107485086E-1,-4.251621962E-1,-3.970624134E-2,4.761873712E-1
2.469533000E-2,-1.875356287E-1,-4.526511431E-1,-3.726277873E-2,4.913768249E-1
2.645434600E-2,-1.679879427E-1,-4.764748812E-1,-3.909537569E-2,5.067313980E-1
2.873409900E-2,-1.576032341E-1,-4.880813360E-1,-3.909537569E-2,5.143837268E-1
3.060276900E-2,-1.350012124E-1,-5.045747161E-1,-3.787364438E-2,5.236939797E-1
3.294948400E-2,-1.172861308E-1,-5.222898126E-1,-4.214970022E-2,5.369537057E-1
3.474573100E-2,-1.093448773E-1,-5.296201706E-1,-4.398229718E-2,5.425755890E-1
3.695129200E-2,-9.590584040E-2,-5.369505286E-1,-4.520402849E-2,5.473181932E-1
3.897565400E-2,-8.491026610E-2,-5.448917747E-1,-5.070181563E-2,5.537937102E-1
4.116929200E-2,-7.819075137E-2,-5.473352671E-1,-5.436700583E-2,5.555586913E-1
4.286596200E-2,-7.269296050E-2,-5.503895879E-1,-5.803219974E-2,5.581941429E-1
4.516052200E-2,-7.024950534E-2,-5.491678715E-1,-6.536258012E-2,5.574877675E-1
4.719575300E-2,-6.658431143E-2,-5.479460955E-1,-7.147123665E-2,5.565847031E-1
4.929175300E-2,-6.291911751E-2,-5.412266254E-1,-7.574728876E-2,5.501115589E-1
5.102011600E-2,-6.475171447E-2,-5.363397002E-1,-7.757988572E-2,5.457762337E-1
5.335859900E-2,-5.681046844E-2,-5.314527750E-1,-8.796459436E-2,5.416707960E-1
5.525073100E-2,-5.375614017E-2,-5.241223574E-1,-8.613199741E-2,5.338657969E-1
5.746606100E-2,-4.581489414E-2,-5.241223574E-1,-8.918632567E-2,5.336266960E-1
5.925823100E-2,-4.031710699E-2,-5.180137157E-1,-8.979719132E-2,5.272828599E-1
6.155190700E-2,-3.054326214E-2,-5.143485069E-1,-9.040805697E-2,5.231260787E-1
6.332061600E-2,-2.504547499E-2,-5.082398653E-1,-9.224065393E-2,5.171492770E-1
6.567379200E-2,-2.015855350E-2,-5.021312237E-1,-8.918632567E-2,5.103884146E-1
6.741596200E-2,-1.832595654E-2,-4.905247986E-1,-8.796459436E-2,4.986864632E-1
6.971348400E-2,-1.588249579E-2,-4.667010605E-1,-8.613199741E-2,4.748482437E-1
7.153138500E-2,-1.771509275E-2,-4.404338300E-1,-8.613199741E-2,4.491263788E-1
7.392894500E-2,-2.015855350E-2,-4.251621962E-1,-8.735372871E-2,4.345111440E-1
7.580607700E-2,-2.504547499E-2,-3.909537494E-1,-8.796459436E-2,4.015095016E-1
7.793706100E-2,-3.115412779E-2,-3.567453027E-1,-9.040805697E-2,3.693391496E-1
7.979953900E-2,-3.543018550E-2,-3.408628106E-1,-9.285151958E-2,3.550551484E-1
8.215336800E-2,-3.909537569E-2,-3.084869385E-1,-9.590584040E-2,3.254083125E-1
8.386538500E-2,-4.581489414E-2,-2.785545588E-1,-9.773843735E-2,2.987380941E-1
8.614309900E-2,-5.131268129E-2,-2.547308207E-1,-1.020144969E-1,2.791554045E-1
8.797096200E-2,-5.375614017E-2,-2.425135076E-1,-1.038470939E-1,2.692336214E-1
9.031609900E-2,-5.558873713E-2,-2.235766798E-1,-1.087340117E-1,2.547542438E-1
9.206488500E-2,-6.047565863E-2,-2.046398520E-1,-1.148426682E-1,2.423295540E-1
9.441648400E-2,-6.230825558E-2,-1.869247705E-1,-1.203404516E-1,2.308787838E-1
9.631030800E-2,-6.108652428E-2,-1.759291887E-1,-1.221730486E-1,2.227305473E-1
9.852117600E-2,-6.230825558E-2,-1.600466967E-1,-1.240056455E-1,2.118364085E-1
1.003070000E-1,-6.291911751E-2,-1.441642046E-1,-1.233947799E-1,1.999209967E-1
1.026063680E-1,-5.986479297E-2,-1.368338168E-1,-1.209513173E-1,1.921887301E-1
1.043941920E-1,-6.169738993E-2,-1.362229437E-1,-1.221730486E-1,1.931049251E-1
1.067285220E-1,-5.742133409E-2,-1.325577646E-1,-1.227839142E-1,1.895907703E-1
1.084921540E-1,-5.803219974E-2,-1.343903542E-1,-1.313360333E-1,1.966663600E-1
1.107662140E-1,-5.803219974E-2,-1.331686229E-1,-1.325577646E-1,1.966549752E-1
1.126022310E-1,-5.925392732E-2,-1.319468915E-1,-1.398881376E-1,2.012205286E-1
1.149804840E-1,-6.108652428E-2,-1.307251602E-1,-1.453859210E-1,2.048357806E-1
1.167880000E-1,-6.597344577E-2,-1.288925707E-1,-1.551597714E-1,2.122271072E-1
1.189808680E-1,-6.536258012E-2,-1.325577646E-1,-1.606575549E-1,2.182995139E-1
1.208385390E-1,-6.597344577E-2,-1.319468915E-1,-1.673770845E-1,2.231088661E-1
1.231969070E-1,-7.086037099E-2,-1.356120855E-1,-1.747074574E-1,2.322380795E-1
1.251179450E-1,-7.635815442E-2,-1.350012124E-1,-1.777617931E-1,2.359134379E-1
1.271873680E-1,-7.757988572E-2,-1.350012124E-1,-1.808161139E-1,2.386177551E-1
1.292222910E-1,-8.307767659E-2,-1.362229437E-1,-1.838704348E-1,2.434479975E-1
1.313567530E-1,-8.246681094E-2,-1.325577646E-1,-1.869247705E-1,2.435430264E-1
1.333263300E-1,-8.246681094E-2,-1.319468915E-1,-1.875356287E-1,2.436808756E-1
1.354577910E-1,-8.246681094E-2,-1.343903542E-1,-1.924225539E-1,2.487729516E-1
1.374578080E-1,-7.941248268E-2,-1.350012124E-1,-1.948660165E-1,2.500088681E-1
1.395140220E-1,-7.330382615E-2,-1.368338168E-1,-2.003637999E-1,2.534612331E-1
1.412729230E-1,-7.024950534E-2,-1.380555481E-1,-1.979203373E-1,2.513300366E-1
1.435645600E-1,-6.475171447E-2,-1.380555481E-1,-1.991420686E-1,2.508180264E-1
1.453379620E-1,-5.619960278E-2,-1.374446750E-1,-1.960877478E-1,2.459671500E-1
1.476857910E-1,-4.398229718E-2,-1.362229437E-1,-1.942551434E-1,2.413010435E-1
1.494467310E-1,-3.726277873E-2,-1.350012124E-1,-1.912008226E-1,2.370054779E-1
1.517242140E-1,-2.932153270E-2,-1.325577646E-1,-1.905899495E-1,2.339996626E-1
1.537590990E-1,-1.527163107E-2,-1.301143020E-1,-1.826487035E-1,2.247743384E-1
1.559404450E-1,-2.443460980E-3,-1.252273768E-1,-1.783726513E-1,2.179556587E-1
1.578050000E-1,4.886921961E-3,-1.246165112E-1,-1.789835095E-1,2.181473207E-1
1.599491370E-1,1.893682219E-2,-1.215621829E-1,-1.722639948E-1,2.116857375E-1
1.618124230E-1,3.726277873E-2,-1.099557430E-1,-1.685988009E-1,2.047054854E-1
1.641667910E-1,5.131268129E-2,-1.050688252E-1,-1.661553532E-1,2.031749263E-1
1.658796920E-1,6.841690838E-2,-9.651670605E-2,-1.600466967E-1,1.990258602E-1
1.681577530E-1,8.857546002E-2,-8.857546002E-2,-1.588249654E-1,2.022785057E-1
1.699870000E-1,1.111774743E-1,-8.063421398E-2,-1.557706445E-1,2.076699327E-1
1.723304450E-1,1.240056455E-1,-7.574728876E-2,-1.539380401E-1,2.116883844E-1
1.740916920E-1,1.453859210E-1,-6.475171447E-2,-1.502728462E-1,2.188875941E-1
1.764324060E-1,1.685988009E-1,-5.192354694E-2,-1.484402567E-1,2.305561108E-1
1.783228850E-1,1.808161139E-1,-4.214970022E-2,-1.453859210E-1,2.358137619E-1
1.805394830E-1,2.064724565E-1,-2.687807009E-2,-1.447750628E-1,2.536003248E-1
1.823335000E-1,2.247984111E-1,-7.941247895E-3,-1.429424733E-1,2.665144269E-1
1.846260600E-1,2.480112910E-1,1.466076635E-2,-1.447750628E-1,2.875488782E-1
1.866131760E-1,2.565633953E-1,2.626720630E-2,-1.472185254E-1,2.969647052E-1
1.887481370E-1,2.730567753E-1,4.764748737E-2,-1.514945775E-1,3.158811369E-1
1.907184830E-1,2.871066630E-1,7.757988572E-2,-1.551597714E-1,3.354451211E-1
1.927870600E-1,3.048217595E-1,1.038470939E-1,-1.618792862E-1,3.604239549E-1
1.946116150E-1,3.127630055E-1,1.191187203E-1,-1.637118906E-1,3.725742211E-1
1.970023680E-1,3.292563558E-1,1.459967941E-1,-1.685988009E-1,3.976812384E-1
1.988165390E-1,3.475823104E-1,1.753183305E-1,-1.692096740E-1,4.244783779E-1
2.010042530E-1,3.616322279E-1,2.101376504E-1,-1.740965992E-1,4.530400934E-1
2.028790770E-1,3.683517575E-1,2.260201424E-1,-1.753183305E-1,4.663739262E-1
2.052221370E-1,3.830125034E-1,2.565633953E-1,-1.789835095E-1,4.945285131E-1
2.069715000E-1,3.976732790E-1,2.919935882E-1,-1.832595766E-1,5.262968410E-1
2.092134830E-1,4.050036669E-1,3.084869385E-1,-1.850921661E-1,5.417114281E-1
2.110293460E-1,4.233296216E-1,3.390302062E-1,-1.930334121E-1,5.756833743E-1
2.133837140E-1,4.386012554E-1,3.707951903E-1,-2.003637999E-1,6.082810097E-1
2.151375380E-1,4.532620013E-1,4.019493461E-1,-2.089159191E-1,6.408241411E-1
2.174846370E-1,4.581489265E-1,4.129449129E-1,-2.125810981E-1,6.523914954E-1
2.193813850E-1,4.776966274E-1,4.434881806E-1,-2.186897546E-1,6.875325759E-1
2.215907910E-1,4.905247986E-1,4.752531648E-1,-2.272418737E-1,7.198048471E-1
2.233882690E-1,5.045747161E-1,5.051855445E-1,-2.333505303E-1,7.511727820E-1
2.256762910E-1,5.112941861E-1,5.192354321E-1,-2.345722616E-1,7.655398910E-1
2.274584620E-1,5.247332454E-1,5.485569835E-1,-2.425135076E-1,7.969143896E-1
2.297986370E-1,5.393940210E-1,5.791002512E-1,-2.461786866E-1,8.287985018E-1
2.315615000E-1,5.497786999E-1,5.931501389E-1,-2.504547536E-1,8.466470869E-1
2.338383680E-1,5.638286471E-1,6.194173694E-1,-2.559525371E-1,8.758380684E-1
2.356665380E-1,5.784893632E-1,6.432411075E-1,-2.614503205E-1,9.037507044E-1
2.380534060E-1,5.968153477E-1,6.713408828E-1,-2.657263875E-1,9.367484471E-1
2.399168460E-1,6.004805565E-1,6.805039048E-1,-2.693915665E-1,9.466965086E-1
2.420628290E-1,6.169738770E-1,7.073819637E-1,-2.755002379E-1,9.782363664E-1
2.439283460E-1,6.340781450E-1,7.330383062E-1,-2.736676335E-1,1.007121753E0
2.462800600E-1,6.456845403E-1,7.586946487E-1,-2.724458873E-1,1.032837285E0
2.480014620E-1,6.566801667E-1,7.672467232E-1,-2.730567753E-1,1.046162692E0
2.502711750E-1,6.750060916E-1,7.886270285E-1,-2.700024247E-1,1.072598305E0
2.521043850E-1,6.921103001E-1,8.075638413E-1,-2.693915665E-1,1.097154429E0
2.544441750E-1,7.128797174E-1,8.234463334E-1,-2.657263875E-1,1.121102970E0
2.561968850E-1,7.208209634E-1,8.313875794E-1,-2.638937831E-1,1.131560028E0
2.585467520E-1,7.434229851E-1,8.442157507E-1,-2.620611787E-1,1.155012567E0
2.604358850E-1,7.599163651E-1,8.576548100E-1,-2.565633953E-1,1.174252712E0
2.626542520E-1,7.794640660E-1,8.692612648E-1,-2.516764700E-1,1.194370304E0
2.644500000E-1,7.904596329E-1,8.759807348E-1,-2.486221492E-1,1.205811615E0
2.667414450E-1,8.069530129E-1,8.906415105E-1,-2.455678284E-1,1.226669892E0
2.685206920E-1,8.271115422E-1,9.004153609E-1,-2.449569702E-1,1.246942357E0
2.708642140E-1,8.332201838E-1,9.053022861E-1,-2.461786866E-1,1.254763743E0
2.728349830E-1,8.484918475E-1,9.205739498E-1,-2.467895597E-1,1.276048549E0
2.749045220E-1,8.625417352E-1,9.321803451E-1,-2.455678284E-1,1.293538557E0
2.769396540E-1,8.723155856E-1,9.443976879E-1,-2.449569702E-1,1.308749552E0
2.791211370E-1,8.833111525E-1,9.517280459E-1,-2.400700450E-1,1.320476615E0
2.809248080E-1,8.881980777E-1,9.645562172E-1,-2.388483137E-1,1.332783943E0
2.831247140E-1,8.979719281E-1,9.767735004E-1,-2.333505303E-1,1.347179470E0
2.849887310E-1,9.034696817E-1,9.859365225E-1,-2.296853364E-1,1.356865375E0
2.873439830E-1,9.114109278E-1,9.981538057E-1,-2.247984111E-1,1.370224516E0
2.890510770E-1,9.156870246E-1,1.010371089E0,-2.199114859E-1,1.381192791E0
2.913342910E-1,9.199630618E-1,1.023199320E0,-2.144137025E-1,1.392566738E0
2.933695980E-1,9.254608750E-1,1.025031924E0,-2.131919712E-1,1.397361476E0
2.954662910E-1,9.291260242E-1,1.031140566E0,-2.101376504E-1,1.403810481E0
2.971862690E-1,9.309586287E-1,1.034194827E0,-2.064724565E-1,1.406724488E0
2.995341370E-1,9.334021211E-1,1.032973170E0,-2.101376504E-1,1.407988254E0
3.014566920E-1,9.340129495E-1,1.029307961E0,-2.119702399E-1,1.405982380E0
3.036417520E-1,9.395107627E-1,1.020755768E0,-2.131919712E-1,1.403593113E0
3.056114440E-1,9.395107627E-1,1.005484223E0,-2.156354338E-1,1.392902594E0
3.077291370E-1,9.425650835E-1,9.859365225E-1,-2.211332172E-1,1.381810285E0
3.095004620E-1,9.462302923E-1,9.755517840E-1,-2.223549485E-1,1.377132809E0
3.118531750E-1,9.480628371E-1,9.468411207E-1,-2.272418737E-1,1.359032788E0
3.136844230E-1,9.523389339E-1,9.156870246E-1,-2.296853364E-1,1.340965147E0
3.158924830E-1,9.572258592E-1,8.998045325E-1,-2.327396572E-1,1.334202867E0
3.178320000E-1,9.584475756E-1,8.655960560E-1,-2.333505303E-1,1.312375997E0
3.201081370E-1,9.633345008E-1,8.265006542E-1,-2.321287990E-1,1.290348973E0
3.219632310E-1,9.706648588E-1,7.892379165E-1,-2.339613885E-1,1.272723335E0
3.241171370E-1,9.724974632E-1,7.721336484E-1,-2.339613885E-1,1.263597886E0
3.259691540E-1,9.749409556E-1,7.293730974E-1,-2.333505303E-1,1.239736848E0
3.283355600E-1,9.779952765E-1,6.933320761E-1,-2.321287990E-1,1.221092915E0
3.300558460E-1,9.816604257E-1,6.548475623E-1,-2.284636050E-1,1.201947644E0
3.323277520E-1,9.798278809E-1,6.371324658E-1,-2.260201424E-1,1.190414029E0
3.341555770E-1,9.786061049E-1,5.962044597E-1,-2.229658216E-1,1.167408850E0
3.365006370E-1,9.773843884E-1,5.552765131E-1,-2.193006277E-1,1.145296911E0
3.382702310E-1,9.767735004E-1,5.314527750E-1,-2.193006277E-1,1.133411350E0
3.406042140E-1,9.724974632E-1,4.813618064E-1,-2.156354338E-1,1.106326871E0
3.424883460E-1,9.633345008E-1,4.337143302E-1,-2.156354338E-1,1.078248636E0
3.447108670E-1,9.541715384E-1,3.738495409E-1,-2.113593817E-1,1.046364942E0
3.465136920E-1,9.480628371E-1,3.481931984E-1,-2.101376504E-1,1.031610139E0
3.487982140E-1,9.376781583E-1,2.883284092E-1,-2.064724565E-1,1.002499115E0
3.507822310E-1,9.236282706E-1,2.284636050E-1,-1.997529417E-1,9.722067881E-1
3.529222140E-1,9.108000994E-1,1.777617931E-1,-1.936442852E-1,9.479737261E-1
3.548920980E-1,9.046914577E-1,1.478293836E-1,-1.875356287E-1,9.356761044E-1
3.569622130E-1,8.894197941E-1,9.773843735E-2,-1.783726513E-1,9.123799510E-1
3.588497310E-1,8.778133392E-1,4.886921868E-2,-1.673770845E-1,8.949634336E-1
3.611786750E-1,8.655960560E-1,-2.443460980E-3,-1.545489132E-1,8.792882742E-1
3.629844610E-1,8.570439219E-1,-2.809980139E-2,-1.502728462E-1,8.705721172E-1
3.651819440E-1,8.399397135E-1,-7.391469181E-2,-1.343903542E-1,8.538283617E-1
3.670476920E-1,8.246681094E-1,-1.160643995E-1,-1.203404516E-1,8.414453398E-1
3.694012130E-1,8.057312369E-1,-1.514945775E-1,-1.062905490E-1,8.267110221E-1
3.711078460E-1,7.953465581E-1,-1.624901593E-1,-9.590584040E-2,8.174210234E-1
3.733940980E-1,7.764097452E-1,-1.814269722E-1,-8.063421398E-2,8.013923603E-1
3.752382310E-1,7.562511563E-1,-1.954768747E-1,-6.658431143E-2,7.839390860E-1
3.775660980E-1,7.458664775E-1,-1.973094791E-1,-5.681046844E-2,7.736118291E-1
3.793635000E-1,7.232644558E-1,-1.918116808E-1,-3.848451003E-2,7.492557984E-1
3.816695600E-1,6.976081133E-1,-1.857030392E-1,-2.076941915E-2,7.222008497E-1
3.836213850E-1,6.725626588E-1,-1.777617931E-1,-4.276056774E-3,6.956709493E-1
3.857822130E-1,6.609562039E-1,-1.734857261E-1,-1.221730490E-3,6.833461007E-1
3.875793080E-1,6.365215778E-1,-1.594358236E-1,1.160643995E-2,6.562882068E-1
3.898687520E-1,6.090326309E-1,-1.441642046E-1,2.076941915E-2,6.262071799E-1
3.916477310E-1,5.943718553E-1,-1.356120855E-1,2.260201424E-2,6.100650712E-1
3.939917520E-1,5.699372888E-1,-1.148426682E-1,2.809980139E-2,5.820712589E-1
3.959152310E-1,5.412266254E-1,-9.651670605E-2,2.809980139E-2,5.504828185E-1
3.980312900E-1,5.106833577E-1,-7.574728876E-2,2.687807009E-2,5.169696067E-1
3.998607690E-1,4.972442985E-1,-6.352998316E-2,2.565634064E-2,5.019424259E-1
4.022479060E-1,4.636467099E-1,-4.031710699E-2,2.076941915E-2,4.658595384E-1
4.041139610E-1,4.300491214E-1,-1.343903504E-2,1.404990070E-2,4.304883903E-1
4.062571750E-1,3.958406746E-1,1.343903504E-2,5.497787148E-3,3.961068960E-1
4.081207310E-1,3.793473244E-1,2.748893574E-2,0.000000000E0,3.803419962E-1
4.104749830E-1,3.439171314E-1,5.375614017E-2,-9.773843922E-3,3.482301594E-1
4.121796920E-1,3.152064681E-1,8.429940045E-2,-2.076941915E-2,3.269447587E-1
4.144672130E-1,2.852740586E-1,1.154535338E-1,-3.359758854E-2,3.095797231E-1
4.162867690E-1,2.718350291E-1,1.307251602E-1,-4.276056588E-2,3.046503185E-1
4.186425590E-1,2.443460971E-1,1.631010175E-1,-5.681046844E-2,2.992229710E-1
4.204005770E-1,2.235766798E-1,1.887573600E-1,-7.208210230E-2,3.013498004E-1
4.227438670E-1,2.028072625E-1,2.125810981E-1,-8.491026610E-2,3.058288121E-1
4.246364610E-1,1.954768747E-1,2.254092693E-1,-9.224065393E-2,3.122961503E-1
4.268587900E-1,1.832595766E-1,2.419026345E-1,-1.099557430E-1,3.227866515E-1
4.286432690E-1,1.722639948E-1,2.571742535E-1,-1.246165112E-1,3.336806189E-1
4.309442520E-1,1.673770845E-1,2.645046413E-1,-1.319468915E-1,3.396877623E-1
4.327217690E-1,1.667662114E-1,2.669481039E-1,-1.459967941E-1,3.469687642E-1
4.350676360E-1,1.685988009E-1,2.712241709E-1,-1.521054506E-1,3.537289565E-1
4.368453460E-1,1.740965992E-1,2.687807083E-1,-1.563815027E-1,3.563816345E-1
4.391060210E-1,1.777617931E-1,2.638937831E-1,-1.551597714E-1,3.539968058E-1
4.409426150E-1,1.899790913E-1,2.590068579E-1,-1.490511149E-1,3.541085178E-1
4.433208670E-1,2.095267773E-1,2.565633953E-1,-1.435533315E-1,3.610177352E-1
4.451521150E-1,2.168571651E-1,2.547308207E-1,-1.398881376E-1,3.626065527E-1
4.473305590E-1,2.388483137E-1,2.486221492E-1,-1.350012124E-1,3.702523698E-1
4.492080770E-1,2.602286041E-1,2.474004179E-1,-1.240056455E-1,3.798727330E-1
4.515483670E-1,2.907718420E-1,2.400700450E-1,-1.172861308E-1,3.948897657E-1
4.532588080E-1,2.993239760E-1,2.333505303E-1,-1.148426682E-1,3.965301389E-1
4.555389820E-1,3.292563558E-1,2.284636050E-1,-1.093448773E-1,4.154054271E-1
4.573617690E-1,3.549126983E-1,2.168571651E-1,-1.032362282E-1,4.285414475E-1
4.597081360E-1,3.811798990E-1,2.046398520E-1,-9.712757170E-2,4.434065286E-1
4.614671540E-1,3.927863538E-1,1.985312104E-1,-9.285151958E-2,4.497968052E-1
4.638102130E-1,4.159992337E-1,1.863138974E-1,-8.368854225E-2,4.634350040E-1
4.657317310E-1,4.355469346E-1,1.698205322E-1,-7.452555746E-2,4.733858934E-1
4.679187520E-1,4.514294267E-1,1.539380401E-1,-6.780604273E-2,4.817500461E-1
4.697123460E-1,4.575380683E-1,1.472185254E-1,-6.230825558E-2,4.846614250E-1
4.720049050E-1,4.734205604E-1,1.319468915E-1,-5.314527452E-2,4.943292722E-1
4.737761920E-1,4.831944108E-1,1.191187203E-1,-4.886921868E-2,5.000543057E-1
4.761270980E-1,4.935791194E-1,1.075122803E-1,-4.214970022E-2,5.069081128E-1
4.780123460E-1,4.978551865E-1,9.834930301E-2,-3.970624134E-2,5.090274626E-1
4.801664440E-1,5.027421117E-1,8.857546002E-2,-3.481931984E-2,5.116714063E-1
4.820043080E-1,5.131267905E-1,7.880161703E-2,-2.932153270E-2,5.199697590E-1
4.843823670E-1,5.149593949E-1,7.452555746E-2,-2.871066704E-2,5.211156681E-1
4.863573080E-1,5.222898126E-1,6.780604273E-2,-2.687807009E-2,5.273582638E-1
4.883952900E-1,5.253441334E-1,6.719517708E-2,-2.443460934E-2,5.301874201E-1
4.902759230E-1,5.283984542E-1,6.597344577E-2,-2.321287990E-2,5.330068102E-1
4.926142900E-1,5.296201706E-1,6.963863969E-2,-2.504547499E-2,5.347656880E-1
4.943195000E-1,5.302310586E-1,7.391469181E-2,-2.687807009E-2,5.360324503E-1
4.966061750E-1,5.296201706E-1,8.063421398E-2,-2.932153270E-2,5.365250729E-1
4.984356540E-1,5.277875662E-1,9.346238524E-2,-3.543018550E-2,5.371687170E-1
5.007781740E-1,5.247332454E-1,1.001819000E-1,-3.970624134E-2,5.356845877E-1
5.025302310E-1,5.222898126E-1,1.142318025E-1,-5.131268129E-2,5.370926775E-1
5.048793670E-1,5.192354321E-1,1.288925707E-1,-6.536258012E-2,5.389721659E-1
5.067633460E-1,5.155702829E-1,1.368338168E-1,-7.513642311E-2,5.386851512E-1
5.089860980E-1,5.106833577E-1,1.514945775E-1,-9.162978828E-2,5.405035772E-1
5.107721150E-1,5.015203953E-1,1.649336219E-1,-1.130100712E-1,5.399046978E-1
5.130722510E-1,4.954117239E-1,1.795943826E-1,-1.343903542E-1,5.438268895E-1
5.148319610E-1,4.923573732E-1,1.863138974E-1,-1.447750628E-1,5.459747889E-1
5.171942900E-1,4.838052690E-1,1.948660165E-1,-1.679879427E-1,5.479600821E-1
5.190947690E-1,4.770857692E-1,1.966986060E-1,-1.893682331E-1,5.496921870E-1
5.212328280E-1,4.715879560E-1,2.046398520E-1,-2.107485086E-1,5.555966191E-1
5.231483840E-1,4.685336351E-1,2.083050460E-1,-2.193006277E-1,5.576804862E-1
5.254475210E-1,4.605923891E-1,2.095267773E-1,-2.412917763E-1,5.605965935E-1
5.273833280E-1,4.557054639E-1,2.083050460E-1,-2.632829249E-1,5.660179860E-1
5.294520210E-1,4.544837475E-1,2.058615834E-1,-2.706133127E-1,5.675967171E-1
5.313243460E-1,4.508185387E-1,1.942551434E-1,-2.938261926E-1,5.721068493E-1
5.336694050E-1,4.465425014E-1,1.826487035E-1,-3.152064681E-1,5.762949523E-1
5.353828460E-1,4.416555762E-1,1.692096740E-1,-3.323107064E-1,5.780328428E-1
5.376590210E-1,4.392121136E-1,1.606575549E-1,-3.396410644E-1,5.779915080E-1
5.396936360E-1,4.331034720E-1,1.521054506E-1,-3.549126983E-1,5.802393549E-1
5.417891740E-1,4.288274050E-1,1.411098689E-1,-3.652974069E-1,5.807298286E-1
5.435113840E-1,4.233296216E-1,1.307251602E-1,-3.769038618E-1,5.816816630E-1
5.458557130E-1,4.208861589E-1,1.246165112E-1,-3.817907870E-1,5.817547926E-1
5.477372690E-1,4.184426963E-1,1.105666086E-1,-3.927863538E-1,5.844658970E-1
5.499622510E-1,4.227187634E-1,9.407325089E-2,-4.019493461E-1,5.908504093E-1
5.517633070E-1,4.196644127E-1,8.491026610E-2,-4.068362415E-1,5.906299180E-1
5.540492900E-1,4.227187634E-1,6.108652428E-2,-4.190535545E-1,5.983549097E-1
5.558089230E-1,4.251621962E-1,3.420845419E-2,-4.294382632E-1,6.052688107E-1
5.581714820E-1,4.282165468E-1,2.443460980E-3,-4.416555762E-1,6.151707319E-1
5.599916540E-1,4.300491214E-1,-1.282817032E-2,-4.459316432E-1,6.196465438E-1
5.622109050E-1,4.331034720E-1,-4.825835302E-2,-4.538728893E-1,6.292122740E-1
5.641413840E-1,4.367686510E-1,-8.185594529E-2,-4.648684561E-1,6.430940303E-1
5.664267130E-1,4.404338300E-1,-1.221730486E-1,-4.770857692E-1,6.606958783E-1
5.683304230E-1,4.428772926E-1,-1.423316002E-1,-4.813618064E-1,6.694085221E-1
5.704383280E-1,4.471533597E-1,-1.747074574E-1,-4.929682612E-1,6.881035746E-1
5.723140770E-1,4.520402849E-1,-2.040289938E-1,-5.082398653E-1,7.101239400E-1
5.746559050E-1,4.569272101E-1,-2.254092693E-1,-5.149593949E-1,7.244135507E-1
5.764144230E-1,4.599815309E-1,-2.351831198E-1,-5.155702829E-1,7.298676765E-1
5.786465970E-1,4.679227769E-1,-2.480112910E-1,-5.155702829E-1,7.391035396E-1
5.806576150E-1,4.776966274E-1,-2.577851415E-1,-5.057964325E-1,7.419415598E-1
5.828190970E-1,4.850270152E-1,-2.608394623E-1,-5.033529401E-1,7.460915580E-1
5.845851540E-1,4.960225821E-1,-2.577851415E-1,-4.893030524E-1,7.429058205E-1
5.869203280E-1,5.131267905E-1,-2.516764700E-1,-4.679227769E-1,7.386419118E-1
5.888915970E-1,5.296201706E-1,-2.321287990E-1,-4.502076805E-1,7.328494115E-1
5.910267900E-1,5.375614166E-1,-2.229658216E-1,-4.398229718E-1,7.294726046E-1
5.928175770E-1,5.546656251E-1,-1.997529417E-1,-4.166100919E-1,7.218858373E-1
5.951140590E-1,5.693264008E-1,-1.747074574E-1,-3.958406746E-1,7.150839713E-1
5.969008460E-1,5.864306092E-1,-1.459967941E-1,-3.738495409E-1,7.106190277E-1
5.992370200E-1,5.980370641E-1,-1.331686229E-1,-3.665191531E-1,7.139457274E-1
6.010518840E-1,6.114761233E-1,-1.038470939E-1,-3.500257730E-1,7.121834807E-1
6.032770200E-1,6.279694438E-1,-8.002334833E-2,-3.347541690E-1,7.161073329E-1
6.053124430E-1,6.340781450E-1,-6.963863969E-2,-3.286454976E-1,7.175740360E-1
6.074930590E-1,6.487388611E-1,-5.009094998E-2,-3.194825351E-1,7.248726118E-1
6.093411920E-1,6.591235995E-1,-3.115412779E-2,-3.115412891E-1,7.297071152E-1
6.114986360E-1,6.664539576E-1,-1.710422710E-2,-3.103195429E-1,7.353581786E-1
6.133761540E-1,6.664539576E-1,-9.162978269E-3,-3.084869385E-1,7.344447079E-1
6.157171740E-1,6.682865620E-1,-6.108652451E-4,-3.090978265E-1,7.363075230E-1
6.174522690E-1,6.664539576E-1,5.497787148E-3,-3.127630055E-1,7.362145073E-1
6.197084820E-1,6.646214128E-1,6.108652335E-3,-3.182607889E-1,7.369184946E-1
6.215428070E-1,6.609562039E-1,3.054326167E-3,-3.200933933E-1,7.343924107E-1
6.238792120E-1,6.542366743E-1,-6.108652451E-4,-3.316998184E-1,7.335194399E-1
6.256740770E-1,6.450737119E-1,-7.330383174E-3,-3.433062732E-1,7.307756328E-1
6.279834050E-1,6.359107494E-1,-1.954768784E-2,-3.512475193E-1,7.267320092E-1
6.300056540E-1,6.273586154E-1,-2.321287990E-2,-3.579670191E-1,7.226742398E-1
6.320410970E-1,6.133087277E-1,-3.481931984E-2,-3.677408695E-1,7.159562331E-1
6.338369230E-1,5.992587805E-1,-4.703662544E-2,-3.781255782E-1,7.101425793E-1
6.360939050E-1,5.931501389E-1,-5.192354694E-2,-3.811798990E-1,7.069803797E-1
6.379653840E-1,5.778785348E-1,-5.986479297E-2,-3.860668242E-1,6.975492722E-1
6.402175590E-1,5.632177591E-1,-6.291911751E-2,-3.866777122E-1,6.860704867E-1
6.420235000E-1,5.510004759E-1,-6.352998316E-2,-3.799581826E-1,6.723137688E-1
6.442582510E-1,5.485569835E-1,-6.169738993E-2,-3.762930036E-1,6.680701734E-1
6.461113460E-1,5.326744914E-1,-5.314527452E-2,-3.616322279E-1,6.460219828E-1
6.484740200E-1,5.198463202E-1,-4.031710699E-2,-3.378084898E-1,6.212730812E-1
6.504291150E-1,5.094616413E-1,-2.626720630E-2,-3.133738637E-1,5.987021869E-1
6.524901350E-1,5.002986193E-1,-1.588249579E-2,-3.017674387E-1,5.844780143E-1
6.543840380E-1,4.831944108E-1,6.108652451E-4,-2.767219543E-1,5.568233578E-1
6.567082120E-1,4.685336351E-1,1.832595654E-2,-2.474004179E-1,5.301571227E-1
6.584106150E-1,4.569272101E-1,2.260201424E-2,-2.394591719E-1,5.163661699E-1
6.606993280E-1,4.398229718E-1,3.298672289E-2,-2.229658216E-1,4.942126344E-1
6.625451540E-1,4.214970171E-1,3.359758854E-2,-2.064724565E-1,4.705522380E-1
6.648724820E-1,4.007275999E-1,2.809980139E-2,-1.979203373E-1,4.478221389E-1
6.666679230E-1,3.878994286E-1,2.260201424E-2,-1.942551434E-1,4.344098048E-1
6.689764820E-1,3.652974069E-1,3.054326167E-3,-1.881465018E-1,4.109143835E-1
6.709335380E-1,3.378084898E-1,-1.771509275E-2,-1.850921661E-1,3.856001948E-1
6.730830200E-1,3.048217595E-1,-4.703662544E-2,-1.844813079E-1,3.593912939E-1
6.749027690E-1,2.871066630E-1,-6.047565863E-2,-1.838704348E-1,3.462598417E-1
6.771712120E-1,2.498438805E-1,-8.613199741E-2,-1.844813079E-1,3.222949559E-1
6.789651920E-1,2.070833147E-1,-1.148426682E-1,-1.863138974E-1,3.013058347E-1
6.812942120E-1,1.643227488E-1,-1.325577646E-1,-1.838704348E-1,2.799676115E-1
6.831323840E-1,1.417207420E-1,-1.392772794E-1,-1.850921661E-1,2.715548549E-1
6.853343280E-1,8.979719132E-2,-1.508837193E-1,-1.789835095E-1,2.507279981E-1
6.871941540E-1,3.787364438E-2,-1.600466967E-1,-1.740965992E-1,2.394973568E-1
6.895496350E-1,1.099557430E-2,-1.624901593E-1,-1.722639948E-1,2.370629419E-1
6.914857510E-1,-4.459316283E-2,-1.704314053E-1,-1.643227488E-1,2.409094848E-1
6.935542120E-1,-9.712757170E-2,-1.753183305E-1,-1.569923609E-1,2.545916016E-1
6.954285000E-1,-1.508837193E-1,-1.881465018E-1,-1.527163088E-1,2.854597588E-1
6.977715200E-1,-1.795943826E-1,-1.948660165E-1,-1.502728462E-1,3.046454250E-1
6.995023840E-1,-2.302961946E-1,-2.144137025E-1,-1.478293836E-1,3.476537066E-1
7.017634810E-1,-2.803871334E-1,-2.217440903E-1,-1.429424733E-1,3.849934244E-1
7.036051150E-1,-3.329215646E-1,-2.284636050E-1,-1.398881376E-1,4.273184738E-1
7.059323660E-1,-3.549126983E-1,-2.333505303E-1,-1.368338168E-1,4.462499152E-1
7.077613070E-1,-4.019493461E-1,-2.425135076E-1,-1.270599663E-1,4.863335411E-1
7.100347890E-1,-4.453207552E-1,-2.492330223E-1,-1.154535338E-1,5.232181122E-1
7.120070580E-1,-4.673119187E-1,-2.504547536E-1,-1.093448773E-1,5.413541495E-1
7.141420200E-1,-5.112941861E-1,-2.528982162E-1,-9.712757170E-2,5.786302945E-1
7.159540770E-1,-5.485569835E-1,-2.559525371E-1,-8.613199741E-2,6.114288072E-1
7.182285200E-1,-5.852088928E-1,-2.553416789E-1,-7.391469181E-2,6.427536098E-1
7.200157300E-1,-6.017022729E-1,-2.535090744E-1,-7.086037099E-2,6.567599776E-1
7.223511740E-1,-6.365215778E-1,-2.516764700E-1,-6.414084882E-2,6.874698634E-1
7.241397690E-1,-6.652322412E-1,-2.437352389E-1,-6.658431143E-2,7.115997976E-1
7.263906740E-1,-6.939429045E-1,-2.315179259E-1,-7.269296050E-2,7.351473126E-1
7.282554610E-1,-7.049384713E-1,-2.241875380E-1,-7.696902007E-2,7.437220789E-1
7.306060580E-1,-7.269296646E-1,-2.034181207E-1,-8.674286306E-2,7.598223433E-1
7.325487300E-1,-7.489207983E-1,-1.783726513E-1,-8.307767659E-2,7.743391151E-1
7.346354040E-1,-7.629706860E-1,-1.490511149E-1,-7.696902007E-2,7.811944268E-1
7.365055000E-1,-7.721336484E-1,-1.331686229E-1,-6.780604273E-2,7.864616408E-1
7.388532890E-1,-7.867944241E-1,-8.918632567E-2,-4.337143153E-2,7.930200171E-1
7.406829230E-1,-8.020660877E-1,-3.481931984E-2,-1.649336144E-2,8.029909247E-1
7.428448270E-1,-8.075638413E-1,-1.832595794E-3,0.000000000E0,8.075659207E-1
7.446861540E-1,-8.271115422E-1,6.780604273E-2,3.176499158E-2,8.304939358E-1
7.470179430E-1,-8.399397135E-1,1.539380401E-1,5.925392732E-2,8.559828680E-1
7.488086150E-1,-8.533787727E-1,2.486221492E-1,8.063421398E-2,8.925078035E-1
7.511194430E-1,-8.588765264E-1,3.011565804E-1,8.796459436E-2,9.143861019E-1
7.530506150E-1,-8.735373020E-1,4.062253833E-1,1.014036313E-1,9.686945734E-1
7.552262890E-1,-8.772025108E-1,5.161811113E-1,1.038470939E-1,1.023089147E0
7.570583070E-1,-8.820894361E-1,6.322455406E-1,1.081231460E-1,1.090645135E0
7.593131350E-1,-8.808676600E-1,6.884451509E-1,1.069014147E-1,1.123081686E0
7.611325000E-1,-8.704829812E-1,8.020660877E-1,1.069014147E-1,1.188477405E0
7.634367500E-1,-8.588765264E-1,9.016370773E-1,1.093448773E-1,1.250029843E0
7.653633840E-1,-8.491026759E-1,9.456194043E-1,1.087340117E-1,1.275536945E0
7.674759810E-1,-8.326093554E-1,1.030529618E0,1.123992056E-1,1.329610174E0
7.694238460E-1,-8.155050874E-1,1.097724795E0,1.233947799E-1,1.373053002E0
7.716907500E-1,-7.935139537E-1,1.150870085E0,1.356120855E-1,1.404477477E0
7.734968460E-1,-7.831292152E-1,1.170417786E0,1.417207420E-1,1.415363533E0
7.756960580E-1,-7.672467232E-1,1.199739337E0,1.582140923E-1,1.432855090E0
7.775782300E-1,-7.525860071E-1,1.221119642E0,1.802052408E-1,1.445680742E0
7.799138660E-1,-7.434229851E-1,1.230893493E0,1.954768747E-1,1.451202168E0
7.817690770E-1,-7.385360599E-1,1.227839112E0,2.028072625E-1,1.447119616E0
7.839045580E-1,-7.440338731E-1,1.215011001E0,2.205223590E-1,1.441689372E0
7.859393660E-1,-7.452555895E-1,1.204626322E0,2.284636050E-1,1.434826152E0
7.880346350E-1,-7.733554244E-1,1.175915599E0,2.376265824E-1,1.427348066E0
7.897757300E-1,-7.874053121E-1,1.161865711E0,2.394591719E-1,1.423825745E0
7.921011350E-1,-8.271115422E-1,1.130100727E0,2.437352389E-1,1.421494996E0
7.940154610E-1,-8.686503768E-1,1.083674908E0,2.412917763E-1,1.409654746E0
7.962073270E-1,-8.985827565E-1,1.056796908E0,2.370157093E-1,1.407283597E0
7.980240000E-1,-9.511171579E-1,1.015868902E0,2.357939780E-1,1.411457500E0
8.002938270E-1,-1.008538485E0,9.657779336E-1,2.266310006E-1,1.414651371E0
8.021237690E-1,-1.078177214E0,9.083566070E-1,2.186897546E-1,1.426675520E0
8.044164810E-1,-1.112385631E0,8.814785480E-1,2.144137025E-1,1.435402194E0
8.063854430E-1,-1.179580808E0,8.350527883E-1,2.028072625E-1,1.459402216E0
8.084547500E-1,-1.252884626E0,7.867944241E-1,1.875356287E-1,1.491286346E0
8.103061530E-1,-1.293201685E0,7.654141784E-1,1.814269722E-1,1.513652935E0
8.126701350E-1,-1.357953429E0,7.153232098E-1,1.582140923E-1,1.542970029E0
8.145051920E-1,-1.421483397E0,6.664539576E-1,1.337794960E-1,1.575649987E0
8.166823270E-1,-1.476461291E0,6.230825782E-1,1.062905490E-1,1.606072080E0
8.185630770E-1,-1.503950238E0,6.010913849E-1,8.918632567E-2,1.622076254E0
8.208999420E-1,-1.546710849E0,5.638286471E-1,5.742133409E-2,1.647274841E0
8.228216350E-1,-1.580919266E0,5.381723046E-1,1.954768784E-2,1.670124925E0
8.248913270E-1,-1.609629869E0,5.229006410E-1,-2.076941915E-2,1.692561599E0
8.267995770E-1,-1.617571115E0,5.137376785E-1,-4.031710699E-2,1.697671401E0
8.290639040E-1,-1.630399346E0,5.137376785E-1,-7.819075137E-2,1.711210748E0
8.308381920E-1,-1.632842779E0,5.216789246E-1,-1.240056455E-1,1.718633714E0
8.331658660E-1,-1.627955914E0,5.503895879E-1,-1.631010175E-1,1.726201349E0
8.350545380E-1,-1.618182063E0,5.705481172E-1,-1.808161139E-1,1.725321075E0
8.372726350E-1,-1.599245191E0,6.200281978E-1,-2.193006277E-1,1.729194295E0
8.390791920E-1,-1.576643229E0,6.817256212E-1,-2.492330223E-1,1.735704696E0
8.413594810E-1,-1.547321677E0,7.171558142E-1,-2.614503205E-1,1.725361732E0
8.431648460E-1,-1.529606581E0,7.935139537E-1,-2.858849466E-1,1.746737212E0
8.454821350E-1,-1.505782843E0,8.863654733E-1,-3.066543639E-1,1.773996229E0
8.474519810E-1,-1.476461291E0,9.822713137E-1,-3.274237812E-1,1.803330588E0
8.495217120E-1,-1.458135366E0,1.027475357E0,-3.341432810E-1,1.814804697E0
8.513973070E-1,-1.429424644E0,1.130100727E0,-3.457497358E-1,1.854703573E0
8.537369810E-1,-1.399492264E0,1.224784851E0,-3.555235863E-1,1.893429045E0
8.556023840E-1,-1.373225093E0,1.313360333E0,-3.597996235E-1,1.933938544E0
8.577433270E-1,-1.358564258E0,1.354288220E0,-3.591887653E-1,1.951617277E0
8.596345380E-1,-1.332907915E0,1.434922457E0,-3.549126983E-1,1.990379107E0
8.619602500E-1,-1.305419087E0,1.497841597E0,-3.457497358E-1,2.016727875E0
8.638812880E-1,-1.296256065E0,1.523497939E0,-3.359758854E-1,2.028350451E0
8.659500960E-1,-1.268156290E0,1.569923639E0,-3.176499307E-1,2.042983624E0
8.679398460E-1,-1.243721604E0,1.601077795E0,-2.968805134E-1,2.049007461E0
8.701200190E-1,-1.216843605E0,1.615738630E0,-2.761110961E-1,2.041459531E0
8.719483070E-1,-1.200961113E0,1.617571115E0,-2.632829249E-1,2.031787835E0
8.742219810E-1,-1.172250390E0,1.607797384E0,-2.357939780E-1,2.003692143E0
8.761816920E-1,-1.141707182E0,1.583362699E0,-2.101376504E-1,1.963336588E0
8.783348650E-1,-1.115439892E0,1.552819490E0,-1.838704348E-1,1.920745391E0
8.801386530E-1,-1.098335743E0,1.527773976E0,-1.710422635E-1,1.889362375E0
8.824216350E-1,-1.074512005E0,1.477683067E0,-1.478293836E-1,1.833023956E0
8.843025000E-1,-1.058629513E0,1.425148606E0,-1.240056455E-1,1.779641086E0
8.865445580E-1,-1.048244715E0,1.368949056E0,-1.038470939E-1,1.727316624E0
8.885143270E-1,-1.042747021E0,1.336573124E0,-9.468411654E-2,1.697855750E0
8.905835580E-1,-1.041525245E0,1.266934514E0,-7.513642311E-2,1.641811006E0
8.926189420E-1,-1.044579625E0,1.192408919E0,-5.742133409E-2,1.586279557E0
8.947988650E-1,-1.049466491E0,1.105666041E0,-3.543018550E-2,1.524838552E0
8.966334610E-1,-1.055575132E0,1.062294602E0,-2.321287990E-2,1.497747482E0
8.988137500E-1,-1.070846796E0,9.633345008E-1,-2.443460980E-3,1.440393068E0
9.007046920E-1,-1.089172721E0,8.582656980E-1,1.771509275E-2,1.386806060E0
9.030318650E-1,-1.112996459E0,7.458664775E-1,4.031710699E-2,1.340411649E0
9.047534610E-1,-1.124602914E0,6.890559793E-1,4.948008433E-2,1.319840193E0
9.070225960E-1,-1.145983219E0,5.833762884E-1,6.780604273E-2,1.287712348E0
9.089453070E-1,-1.166752577E0,4.764748812E-1,8.491026610E-2,1.263150680E0
9.111952880E-1,-1.176526427E0,4.251621962E-1,9.468411654E-2,1.254568615E0
9.129972690E-1,-1.198517561E0,3.237585723E-1,1.117883399E-1,1.246499334E0
9.152970960E-1,-1.223563075E0,2.260201424E-1,1.252273768E-1,1.250549319E0
9.172690190E-1,-1.255328059E0,1.288925707E-1,1.350012124E-1,1.269128503E0
9.194045190E-1,-1.273653984E0,8.124507964E-2,1.404990107E-1,1.283952961E0
9.212225380E-1,-1.312138557E0,-1.282817032E-2,1.472185254E-1,1.320433811E0
9.234904040E-1,-1.357953429E0,-1.136209369E-1,1.631010175E-1,1.372424561E0
9.253143460E-1,-1.380555511E0,-1.679879427E-1,1.692096740E-1,1.400994426E0
9.276134810E-1,-1.428813815E0,-2.675589919E-1,1.869247705E-1,1.465618505E0
9.294038840E-1,-1.477072120E0,-3.683517575E-1,2.015855312E-1,1.535598187E0
9.316524040E-1,-1.530828357E0,-4.709770977E-1,2.193006277E-1,1.616585182E0
9.335044230E-1,-1.555262923E0,-5.174028873E-1,2.266310006E-1,1.654663144E0
9.358680190E-1,-1.598634362E0,-6.120869517E-1,2.443460971E-1,1.729157967E0
9.377265760E-1,-1.642005801E0,-7.012733221E-1,2.626720667E-1,1.804706053E0
9.398737880E-1,-1.681101203E0,-7.812966704E-1,2.773328125E-1,1.874417038E0
9.417692690E-1,-1.695151091E0,-8.185594082E-1,2.840523422E-1,1.903749579E0
9.440938650E-1,-1.731192112E0,-8.875871897E-1,2.981022298E-1,1.968172271E0
9.459443070E-1,-1.753794074E0,-9.431759119E-1,3.097086847E-1,2.015265224E0
9.480856730E-1,-1.766011477E0,-9.651671052E-1,3.127630055E-1,2.036704390E0
9.499228840E-1,-1.783726573E0,-1.004262447E0,3.133738637E-1,2.070851692E0
9.522570570E-1,-1.798387289E0,-1.032973170E0,3.121521473E-1,2.097300497E0
9.540270760E-1,-1.809993744E0,-1.051909924E0,3.084869385E-1,2.116070895E0
9.563599800E-1,-1.816102386E0,-1.053742528E0,3.023782969E-1,2.121328316E0
9.583011530E-1,-1.817934990E0,-1.049466491E0,2.834414840E-1,2.118161141E0
9.604677500E-1,-1.822211027E0,-1.043357849E0,2.602286041E-1,2.115837318E0
9.622911150E-1,-1.826487064E0,-1.044579625E0,2.333505303E-1,2.116991748E0
9.645542880E-1,-1.827708840E0,-1.045801282E0,2.162462920E-1,2.116833103E0
9.663539230E-1,-1.831374049E0,-1.051909924E0,1.808161139E-1,2.119702777E0
9.686773650E-1,-1.830763102E0,-1.072679400E0,1.392772794E-1,2.126436642E0
9.704580760E-1,-1.836871743E0,-1.098335743E0,1.014036313E-1,2.142596999E0
9.727169420E-1,-1.838093519E0,-1.113607287E0,8.491026610E-2,2.150794906E0
9.745674990E-1,-1.841758728E0,-1.138652802E0,5.864306539E-2,2.166112745E0
9.769317110E-1,-1.844812989E0,-1.167363524E0,3.787364438E-2,2.183462154E0
9.789215570E-1,-1.843591332E0,-1.183856845E0,3.115412779E-2,2.191190683E0
9.809450190E-1,-1.845423937E0,-1.213789225E0,2.138028294E-2,2.208920756E0
9.829614990E-1,-1.846034765E0,-1.241278172E0,1.649336144E-2,2.224609603E0
9.851627110E-1,-1.846034765E0,-1.267545342E0,1.649336144E-2,2.239372140E0
9.870179990E-1,-1.841758728E0,-1.283427835E0,1.710422710E-2,2.244895270E0
9.891546730E-1,-1.832595706E0,-1.310916781E0,1.527163107E-2,2.253251662E0
9.910864230E-1,-1.811826348E0,-1.328021049E0,1.099557430E-2,2.246436184E0
9.933297500E-1,-1.793500304E0,-1.348790407E0,3.665191587E-3,2.244079396E0
9.951212690E-1,-1.777617812E0,-1.359175205E0,-2.443460980E-3,2.237697096E0
9.974315570E-1,-1.749518037E0,-1.382998943E0,-1.771509275E-2,2.230204758E0
9.993304610E-1,-1.707979202E0,-1.408655286E0,-3.909537569E-2,2.214278916E0
1.001539403E0,-1.667051196E0,-1.445307136E0,-6.291911751E-2,2.207245166E0
1.003362923E0,-1.641394973E0,-1.460578799E0,-7.452555746E-2,2.198413506E0
1.005626249E0,-1.588860512E0,-1.500285029E0,-9.712757170E-2,2.187410949E0
1.007409615E0,-1.536326051E0,-1.547321677E0,-1.215621829E-1,2.183868007E0
1.009748249E0,-1.503950238E0,-1.574199796E0,-1.325577646E-1,2.181179240E0
1.011568384E0,-1.443474531E0,-1.631621122E0,-1.539380401E-1,2.183919213E0
1.013787096E0,-1.387274981E0,-1.703703165E0,-1.765400618E-1,2.204155788E0
1.015821442E0,-1.332297087E0,-1.784337401E0,-1.930334121E-1,2.235204104E0
1.018001326E0,-1.306640744E0,-1.826487064E0,-2.003637999E-1,2.254664206E0
1.019818384E0,-1.257160664E0,-1.905899525E0,-2.211332172E-1,2.293862645E0
1.022005826E0,-1.213178396E0,-1.984701157E0,-2.370157093E-1,2.338165295E0
1.024040788E0,-1.172250390E0,-2.064113617E0,-2.583959997E-1,2.387782338E0
1.026222480E0,-1.153313637E0,-2.098322153E0,-2.700024247E-1,2.409562100E0
1.027962807E0,-1.119716048E0,-2.166738987E0,-2.981022298E-1,2.457109441E0
1.030213134E0,-1.081842303E0,-2.235766888E0,-3.310889602E-1,2.505724695E0
1.032247942E0,-1.063516378E0,-2.271807909E0,-3.451388776E-1,2.532054326E0
1.034342980E0,-1.025642753E0,-2.333505154E0,-3.762930036E-1,2.576584131E0
1.036080692E0,-9.877691269E-1,-2.384207010E0,-4.111123085E-1,2.613263141E0
1.038408749E0,-9.486737251E-1,-2.436130524E0,-4.477642179E-1,2.652396381E0
1.040286999E0,-9.327912331E-1,-2.463619471E0,-4.618141353E-1,2.674470541E0
1.042515249E0,-8.906415105E-1,-2.509434462E0,-4.893030524E-1,2.707382702E0
1.044330461E0,-8.466592431E-1,-2.556471109E0,-5.057964325E-1,2.740110662E0
1.046600595E0,-8.002334833E-1,-2.599231720E0,-5.174028873E-1,2.768408371E0
1.048384038E0,-7.770205736E-1,-2.612059832E0,-5.198463202E-1,2.774321130E0
1.050722788E0,-7.299839854E-1,-2.638937950E0,-5.216789246E-1,2.787296006E0
1.052582999E0,-6.817256212E-1,-2.665815830E0,-5.198463202E-1,2.800279282E0
1.054760711E0,-6.572909951E-1,-2.678644180E0,-5.149593949E-1,2.805770710E0
1.056595846E0,-6.047565937E-1,-2.705522060E0,-4.984660447E-1,2.816744318E0
1.058975403E0,-5.467243791E-1,-2.743395805E0,-4.740314186E-1,2.837222916E0
1.060900961E0,-4.856378734E-1,-2.782491207E0,-4.386012554E-1,2.858403842E0
1.062986711E0,-4.538728893E-1,-2.805704117E0,-4.214970171E-1,2.873262245E0
1.064909961E0,-3.903428912E-1,-2.845410347E0,-3.878994286E-1,2.898136226E0
1.067203711E0,-3.262020350E-1,-2.877175331E0,-3.591887653E-1,2.917800922E0
1.069009692E0,-2.620611787E-1,-2.898555517E0,-3.463605940E-1,2.930915524E0
1.071193788E0,-2.302961946E-1,-2.915048838E0,-3.390302062E-1,2.943720018E0
1.073064153E0,-1.649336219E-1,-2.939483643E0,-3.292563558E-1,2.962461296E0
1.075366557E0,-9.651670605E-2,-2.948646545E0,-3.207042515E-1,2.967605624E0
1.077134653E0,-6.291911751E-2,-2.951090097E0,-3.213151097E-1,2.969197699E0
1.079467365E0,0.000000000E0,-2.959642172E0,-3.182607889E-1,2.976704842E0
1.081420115E0,5.558873713E-2,-2.971248627E0,-3.182607889E-1,2.988762025E0
1.083573018E0,1.044579595E-1,-2.967583418E0,-3.219259977E-1,2.986820911E0
1.085385461E0,1.288925707E-1,-2.966361523E0,-3.249803185E-1,2.986892396E0
1.087658672E0,1.649336219E-1,-2.948646545E0,-3.280346394E-1,2.971418226E0
1.089448307E0,1.850921661E-1,-2.886338234E0,-3.280346394E-1,2.910809893E0
1.091779441E0,1.893682331E-1,-2.782491207E0,-3.359758854E-1,2.809091925E0
1.093557653E0,1.930334121E-1,-2.727513313E0,-3.414736688E-1,2.755575265E0
1.095816980E0,2.003637999E-1,-2.618168354E0,-3.488040566E-1,2.648889475E0
1.097774653E0,2.052507252E-1,-2.512488842E0,-3.597996235E-1,2.546406058E0
1.100031557E0,2.101376504E-1,-2.408641577E0,-3.750712574E-1,2.446710143E0
1.101847538E0,2.052507252E-1,-2.351220369E0,-3.848451078E-1,2.391332441E0
1.104035288E0,2.021963894E-1,-2.237599373E0,-4.098905921E-1,2.283800480E0
1.105916307E0,1.960877478E-1,-2.122756720E0,-4.453207552E-1,2.177810155E0
1.108252480E0,1.777617931E-1,-2.012190104E0,-4.996877611E-1,2.080912330E0
1.110001692E0,1.692096740E-1,-1.955379605E0,-5.357288122E-1,2.034489291E0
1.112242749E0,1.533271819E-1,-1.842369556E0,-6.163630486E-1,1.948778647E0
1.114278480E0,1.325577646E-1,-1.741576791E0,-7.110471725E-1,1.885802047E0
1.116427211E0,1.252273768E-1,-1.695761919E0,-7.648032904E-1,1.864460902E0
1.118246807E0,1.044579595E-1,-1.599245191E0,-8.784242272E-1,1.827601097E0
1.120514134E0,7.513642311E-2,-1.513724089E0,-9.975429177E-1,1.814413947E0
1.122474576E0,4.398229718E-2,-1.426370382E0,-1.126435518E0,1.818054974E0
1.124564249E0,3.054326214E-2,-1.384831548E0,-1.188132882E0,1.824924944E0
1.126332538E0,3.665191587E-3,-1.297477722E0,-1.313971162E0,1.846613681E0
1.128615980E0,-2.138028294E-2,-1.211956620E0,-1.441031098E0,1.883047156E0
1.130478461E0,-2.809980139E-2,-1.163087368E0,-1.504561067E0,1.901911099E0
1.132738903E0,-5.375614017E-2,-1.072679400E0,-1.633453608E0,1.954917263E0
1.134516538E0,-6.780604273E-2,-9.847147465E-1,-1.759902716E0,2.017800377E0
1.136777172E0,-7.696902007E-2,-8.863654733E-1,-1.881464958E0,2.081220404E0
1.138813287E0,-7.941248268E-2,-8.368853927E-1,-1.939497113E0,2.113843077E0
1.140994787E0,-8.796459436E-2,-7.263187766E-1,-2.056172371E0,2.182457687E0
1.142984634E0,-7.391469181E-2,-6.224716902E-1,-2.167960644E0,2.256764884E0
1.145009326E0,-6.291911751E-2,-5.192354321E-1,-2.278527260E0,2.337787570E0
1.146881153E0,-4.214970022E-2,-4.630358517E-1,-2.328618288E0,2.374582475E0
1.149226480E0,-2.809980139E-2,-3.530801237E-1,-2.423913240E0,2.449655194E0
1.150984076E0,1.527163107E-2,-2.486221492E-1,-2.506380081E0,2.518727319E0
1.153217441E0,3.420845419E-2,-1.930334121E-1,-2.548529863E0,2.556058798E0
1.155087499E0,8.429940045E-2,-9.162978828E-2,-2.632829189E0,2.635771604E0
1.157390787E0,1.472185254E-1,1.221730490E-3,-2.725069761E0,2.729043787E0
1.159190999E0,1.637118906E-1,7.880161703E-2,-2.814867020E0,2.820724662E0
1.161494249E0,1.869247705E-1,1.111774743E-1,-2.852740765E0,2.861019254E0
1.163414922E0,2.101376504E-1,1.734857261E-1,-2.916881561E0,2.929582423E0
1.165600980E0,2.419026345E-1,2.467895597E-1,-2.976746321E0,2.996738332E0
1.167439653E0,2.296853364E-1,3.060434759E-1,-3.014009237E0,3.038201712E0
1.169686980E0,2.480112910E-1,3.396410644E-1,-3.025004625E0,3.054098662E0
1.171549346E0,2.406809032E-1,4.135557711E-1,-3.045163155E0,3.082527260E0
1.173809018E0,2.712241709E-1,5.308418870E-1,-3.047606707E0,3.105360253E0
1.175636422E0,2.693915665E-1,5.931501389E-1,-3.042109013E0,3.111081186E0
1.177847133E0,2.809980214E-1,7.281513810E-1,-3.028059006E0,3.127028248E0
1.179733769E0,3.237585723E-1,9.083566070E-1,-3.003013611E0,3.154048523E0
1.182062364E0,3.353650272E-1,1.091616154E0,-2.970026731E0,3.182004763E0
1.183922807E0,3.506366611E-1,1.185078621E0,-2.952311754E0,3.200547156E0
1.186085595E0,3.225368559E-1,1.372003317E0,-2.913216352E0,3.236240510E0
1.188068345E0,3.280346394E-1,1.566258430E0,-2.853962421E0,3.271983145E0
1.190303710E0,3.036000133E-1,1.747685432E0,-2.783102036E0,3.300338510E0
1.192102999E0,2.858849466E-1,1.837482691E0,-2.740341425E0,3.311728245E0
1.194294480E0,2.541199327E-1,2.026240110E0,-2.652987719E0,3.347920214E0
1.196153422E0,1.753183305E-1,2.198503971E0,-2.561968803E0,3.380508893E0
1.198463633E0,1.478293836E-1,2.382985353E0,-2.460565090E0,3.428535151E0
1.200432749E0,1.563815027E-1,2.503936529E0,-2.413528681E0,3.481274768E0
1.202564633E0,1.313360333E-1,2.689639568E0,-2.321287870E0,3.555247887E0
1.204450230E0,4.337143153E-2,2.863125324E0,-2.229658127E0,3.629151838E0
1.206670787E0,5.436700583E-2,3.057991505E0,-2.150245667E0,3.738692852E0
1.208595384E0,1.832595794E-3,3.132516861E0,-2.109317780E0,3.776491326E0
1.210756364E0,4.153883830E-2,3.315776587E0,-2.038457394E0,3.892481007E0
1.212604115E0,3.848451003E-2,3.439171314E0,-1.961488247E0,3.959395980E0
1.214877518E0,7.024950534E-2,3.511864185E0,-1.935221076E0,4.010387221E0
1.216751461E0,7.880161703E-2,3.635259151E0,-1.880854130E0,4.093767342E0
1.218916479E0,9.773843735E-2,3.711006403E0,-1.825876236E0,4.137021314E0
1.220851999E0,1.802052408E-1,3.784921169E0,-1.787391663E0,4.189614677E0
1.223131710E0,1.924225539E-1,3.816686153E0,-1.768454909E0,4.210884990E0
1.225089384E0,2.645046413E-1,3.831346750E0,-1.720807433E0,4.208367718E0
1.227146210E0,3.243694305E-1,3.826459885E0,-1.687820673E0,4.194728764E0
1.229020230E0,4.129449129E-1,3.780644894E0,-1.637729764E0,4.140767814E0
1.231363364E0,4.434881806E-1,3.729943275E0,-1.609019041E0,4.086330980E0
1.233105269E0,5.277875662E-1,3.594941854E0,-1.546099901E0,3.948745567E0
1.235354826E0,5.943718553E-1,3.415347576E0,-1.464854836E0,3.763466043E0
1.237206499E0,6.322455406E-1,3.301115751E0,-1.423926830E0,3.650296871E0
1.239527287E0,6.829473376E-1,3.031113386E0,-1.328021049E0,3.379009520E0
1.241311230E0,7.409795523E-1,2.726291656E0,-1.222952247E0,3.078527098E0
1.243629364E0,7.855727077E-1,2.380541801E0,-1.111774802E0,2.742288635E0
1.245585845E0,7.984008789E-1,2.200336695E0,-1.059851170E0,2.569476607E0
1.247737172E0,8.228355050E-1,1.836871743E0,-9.572258592E-1,2.228774869E0
1.249542845E0,8.338310719E-1,1.480126500E0,-8.546004891E-1,1.901681022E0
1.251824825E0,8.405506015E-1,1.128878951E0,-7.611380816E-1,1.600070054E0
1.253627076E0,8.319984674E-1,9.645562172E-1,-7.171558142E-1,1.461814834E0
1.255948825E0,8.246681094E-1,6.621779203E-1,-6.359107494E-1,1.234074378E0
1.257861961E0,8.148942590E-1,3.952298164E-1,-5.723807216E-1,1.071391129E0
1.259987825E0,8.087855577E-1,1.753183305E-1,-5.412266254E-1,9.888361116E-1
1.262013345E0,8.057312369E-1,7.941248268E-2,-4.929682612E-1,9.479065751E-1
1.264204287E0,8.051204085E-1,-7.269296050E-2,-4.581489265E-1,9.291951235E-1
1.266070884E0,8.038986921E-1,-1.875356287E-1,-4.245513380E-1,9.282599624E-1
1.268210402E0,8.045095205E-1,-2.254092693E-1,-4.098905921E-1,9.306208706E-1
1.270099038E0,8.106181622E-1,-2.773328125E-1,-3.946189582E-1,9.432599938E-1
1.272428902E0,8.203920126E-1,-2.993239760E-1,-3.738495409E-1,9.499480913E-1
1.274225692E0,8.313875794E-1,-3.103195429E-1,-3.536909819E-1,9.553014376E-1
1.276421210E0,8.381071091E-1,-3.115412891E-1,-3.475823104E-1,9.593200528E-1
1.278456902E0,8.491026759E-1,-3.054326177E-1,-3.237585723E-1,9.586887145E-1
1.280553672E0,8.570439219E-1,-2.938261926E-1,-2.981022298E-1,9.537940318E-1
1.282299615E0,8.649851680E-1,-2.877175212E-1,-2.858849466E-1,9.553590506E-1
1.284621825E0,8.735373020E-1,-2.748893499E-1,-2.516764700E-1,9.497223901E-1
1.286550268E0,8.863654733E-1,-2.571742535E-1,-2.156354338E-1,9.477768668E-1
1.288729056E0,8.924741149E-1,-2.455678284E-1,-1.759291887E-1,9.422126530E-1
1.290538268E0,9.016370773E-1,-2.467895597E-1,-1.576032341E-1,9.479943488E-1
1.292815710E0,9.040805697E-1,-2.480112910E-1,-1.136209369E-1,9.443415666E-1
1.294606384E0,9.114109278E-1,-2.553416789E-1,-6.841690838E-2,9.489731954E-1
1.296939210E0,9.138544202E-1,-2.706133127E-1,-1.771509275E-2,9.532446123E-1
1.298782653E0,9.211847782E-1,-2.822197378E-1,2.443460980E-3,9.634497115E-1
1.300979133E0,9.144652486E-1,-3.048217595E-1,5.192354694E-2,9.653284677E-1
1.302970768E0,9.083566070E-1,-3.292563558E-1,1.038470939E-1,9.717539257E-1
1.305193364E0,9.034696817E-1,-3.555235863E-1,1.502728462E-1,9.824644597E-1
1.307086192E0,8.991936445E-1,-3.640756905E-1,1.740965992E-1,9.856013112E-1
1.309206094E0,8.924741149E-1,-3.885102868E-1,2.235766798E-1,9.987175879E-1
1.311068615E0,8.820894361E-1,-4.196644127E-1,2.809980214E-1,1.016444726E0
1.313423825E0,8.686503768E-1,-4.465425014E-1,3.359758854E-1,1.032876313E0
1.315158999E0,8.637634516E-1,-4.532620013E-1,3.610213697E-1,1.040129882E0
1.317414864E0,8.515461683E-1,-4.569272101E-1,4.013384581E-1,1.046415744E0
1.319274499E0,8.423831463E-1,-4.440990388E-1,4.367686510E-1,1.047664152E0
1.321588825E0,8.319984674E-1,-4.343251884E-1,4.520402849E-1,1.041729446E0
1.323514461E0,8.173376918E-1,-4.178318381E-1,4.838052690E-1,1.037637647E0
1.325691056E0,7.990117669E-1,-3.854559660E-1,5.088507533E-1,1.022704842E0
1.327662287E0,7.825183868E-1,-3.396410644E-1,5.271766782E-1,1.002799246E0
1.329796864E0,7.739662528E-1,-3.133738637E-1,5.326744914E-1,9.904388183E-1
1.331702730E0,7.599163651E-1,-2.577851415E-1,5.461135507E-1,9.706523947E-1
1.333883133E0,7.470881939E-1,-1.960877478E-1,5.540547967E-1,9.505618823E-1
1.335673268E0,7.428121567E-1,-1.661553532E-1,5.558874011E-1,9.425435291E-1
1.338005056E0,7.281513810E-1,-1.087340117E-1,5.589417219E-1,9.243610590E-1
1.339871268E0,7.232644558E-1,-5.253441259E-2,5.571091175E-1,9.144626326E-1
1.342043671E0,7.226535678E-1,1.038470957E-2,5.516113043E-1,9.091815288E-1
1.343942076E0,7.214318514E-1,3.848451003E-2,5.491678715E-1,9.074857160E-1
1.346259094E0,7.293730974E-1,8.796459436E-2,5.412266254E-1,9.124961069E-1
1.348101038E0,7.367035151E-1,1.185078546E-1,5.290092826E-1,9.146731666E-1
1.350265056E0,7.452555895E-1,1.368338168E-1,5.106833577E-1,9.137433332E-1
1.352292422E0,7.525860071E-1,1.380555481E-1,5.015203953E-1,9.148594096E-1
1.354482517E0,7.721336484E-1,1.441642046E-1,4.807509482E-1,9.209208234E-1
1.356228692E0,7.990117669E-1,1.435533315E-1,4.495968223E-1,9.279895825E-1
1.358473440E0,8.289441466E-1,1.521054506E-1,4.141666293E-1,9.390518959E-1
1.360317038E0,8.472700715E-1,1.545489132E-1,3.982841372E-1,9.488847109E-1
1.362643210E0,8.900306821E-1,1.576032341E-1,3.500257730E-1,9.692839812E-1
1.364527115E0,9.376781583E-1,1.649336219E-1,2.944370508E-1,9.965623940E-1
1.366745402E0,9.865473509E-1,1.722639948E-1,2.339613885E-1,1.028439833E0
1.368697922E0,1.014036298E0,1.759291887E-1,2.015855312E-1,1.048740873E0
1.370858017E0,1.068403363E0,1.869247705E-1,1.307251602E-1,1.092481434E0
1.372699730E0,1.118494272E0,2.021963894E-1,5.436700583E-2,1.137922927E0
1.374944556E0,1.147204876E0,2.119702399E-1,1.282817032E-2,1.166694035E0
1.376731230E0,1.199128509E0,2.302961946E-1,-7.147123665E-2,1.223132722E0
1.379067825E0,1.255328059E0,2.522873580E-1,-1.612684280E-1,1.290544441E0
1.380868961E0,1.309084177E0,2.797762752E-1,-2.571742535E-1,1.363126826E0
1.383106902E0,1.334740520E0,2.932153046E-1,-3.054326177E-1,1.400284454E0
1.384954461E0,1.389718413E0,3.262020350E-1,-4.086688459E-1,1.484835096E0
1.387322133E0,1.439198494E0,3.634648323E-1,-5.204572082E-1,1.572982738E0
1.389183653E0,1.488678575E0,4.147774875E-1,-6.450737119E-1,1.674611703E0
1.391334094E0,1.518000126E0,4.440990388E-1,-7.079927921E-1,1.732859525E0
1.393182230E0,1.561982393E0,5.094616413E-1,-8.491026759E-1,1.849409504E0
1.395552056E0,1.616349459E0,5.839871764E-1,-1.004873276E0,1.990828193E0
1.397471115E0,1.637118816E0,6.188064814E-1,-1.085507512E0,2.059467416E0
1.399543286E0,1.683544636E0,7.037167549E-1,-1.261436701E0,2.218279144E0
1.401332653E0,1.740965962E0,7.984008789E-1,-1.448972344E0,2.401650953E0
1.403716171E0,1.789835215E0,9.114109278E-1,-1.641394973E0,2.593907753E0
1.405593538E0,1.824043632E0,9.749409556E-1,-1.739744186E0,2.702657002E0
1.407818440E0,1.874745488E0,1.116661668E0,-1.935221076E0,2.916622111E0
1.409726807E0,1.946827531E0,1.257771492E0,-2.130697966E0,3.148332953E0
1.411927363E0,1.989588141E0,1.379333735E0,-2.325563908E0,3.356973341E0
1.413742230E0,2.018909693E0,1.424537778E0,-2.422080755E0,3.460025927E0
1.416015248E0,2.047009468E0,1.521665335E0,-2.608394623E0,3.648209926E0
1.417761153E0,2.111761093E0,1.635897160E0,-2.781880379E0,3.856754189E0
1.420138786E0,2.183843136E0,1.764178872E0,-2.933374882E0,4.060318477E0
1.421869076E0,2.231490850E0,1.841147900E0,-3.003624439E0,4.170268190E0
1.424178786E0,2.331672668E0,2.007303238E0,-3.130073547E0,4.389000357E0
1.426022768E0,2.426967621E0,2.161241293E0,-3.257744312E0,4.601525156E0
1.428395248E0,2.502714872E0,2.268142700E0,-3.384804249E0,4.781731156E0
1.430162768E0,2.539366722E0,2.303572893E0,-3.450166941E0,4.863998699E0
1.432400979E0,2.623055458E0,2.379930973E0,-3.577226877E0,5.033988826E0
1.434237807E0,2.670091867E0,2.440406561E0,-3.693902254E0,5.170095611E0
1.436620671E0,2.698802710E0,2.466063023E0,-3.752545118E0,5.238950063E0
1.438302076E0,2.753169775E0,2.509434462E0,-3.864333630E0,5.367520799E0
1.440611017E0,2.789210796E0,2.524706125E0,-3.966959000E0,5.467229791E0
1.442383345E0,2.825862646E0,2.541810274E0,-4.059199333E0,5.560881080E0
1.444781440E0,2.850908041E0,2.553416729E0,-4.097073078E0,5.606569491E0
1.446543576E0,2.863125324E0,2.544253826E0,-4.157548904E0,5.652957372E0
1.448883209E0,2.879618883E0,2.487443209E0,-4.200920105E0,5.668095655E0
1.450770653E0,2.861903667E0,2.426356792E0,-4.216802597E0,5.644388721E0
1.452989709E0,2.839912415E0,2.263866663E0,-4.230241776E0,5.575404942E0
1.454808961E0,2.802038908E0,2.074498415E0,-4.240626335E0,5.489797576E0
1.457074748E0,2.750115395E0,1.852754235E0,-4.229020119E0,5.374052856E0
1.458837615E0,2.723237276E0,1.726305127E0,-4.220468044E0,5.311167590E0
1.461196171E0,2.659707308E0,1.459357023E0,-4.208861351E0,5.188282930E0
1.462929422E0,2.618168354E0,1.215011001E0,-4.183815956E0,5.082850895E0
1.465234632E0,2.571742773E0,9.950994849E-1,-4.162436008E0,4.992990827E0
1.467019961E0,2.561357975E0,8.900306821E-1,-4.149607658E0,4.957010491E0
1.469449402E0,2.481334686E0,7.110471725E-1,-4.121507645E0,4.863068493E0
1.471277615E0,2.488054037E0,5.638286471E-1,-4.092186451E0,4.822271828E0
1.473461863E0,2.452013016E0,4.361577928E-1,-4.069584370E0,4.771175787E0
1.475297230E0,2.449569702E0,3.799581826E-1,-4.052480221E0,4.750511118E0
1.477679671E0,2.428189278E0,2.761110961E-1,-4.028656483E0,4.711943714E0
1.479433499E0,2.412306786E0,2.076941878E-1,-4.017049789E0,4.690314479E0
1.481670363E0,2.414139509E0,1.820378453E-1,-4.002999783E0,4.678163593E0
1.483481730E0,2.417804718E0,1.313360333E-1,-3.988950014E0,4.666342360E0
1.485843632E0,2.436130524E0,1.093448773E-1,-3.968791485E0,4.658110570E0
1.487583191E0,2.420858860E0,1.252273768E-1,-3.940691710E0,4.626585206E0
1.489945940E0,2.423302412E0,1.215621829E-1,-3.923587561E0,4.613210519E0
1.491800730E0,2.399478674E0,1.172861308E-1,-3.894876719E0,4.576168550E0
1.494052671E0,2.390926600E0,1.240056455E-1,-3.858835697E0,4.541202522E0
1.495822576E0,2.380541801E0,1.240056455E-1,-3.830735922E0,4.511861520E0
1.498139094E0,2.379320145E0,1.368338168E-1,-3.819129467E0,4.501737190E0
1.499897768E0,2.364048481E0,1.673770845E-1,-3.826459885E0,4.500948295E0
1.502261248E0,2.289522886E0,1.533271819E-1,-3.828292608E0,4.463322593E0
1.503985076E0,2.242486238E0,1.264491081E-1,-3.831957579E0,4.441692559E0
1.506300132E0,2.105652571E0,5.314527452E-2,-3.847840071E0,4.386624030E0
1.508094307E0,1.955990553E0,-1.588249579E-2,-3.880216122E0,4.345368620E0
1.510513017E0,1.769065738E0,-7.757988572E-2,-3.919311523E0,4.300769122E0
1.512316614E0,1.655444860E0,-1.123992056E-1,-3.939470053E0,4.274640987E0
1.514517440E0,1.376890302E0,-1.979203373E-1,-3.964515448E0,4.201473801E0
1.516428614E0,1.083064079E0,-3.396410644E-1,-3.968791485E0,4.127915903E0
1.518735594E0,7.660250068E-1,-5.051855445E-1,-3.941302538E0,4.046711312E0
1.520445422E0,5.900958180E-1,-5.797111392E-1,-3.923587561E0,4.009840075E0
1.522725594E0,2.858849466E-1,-7.238753438E-1,-3.868609667E0,3.946120433E0
1.524760440E0,-2.565634064E-2,-8.436049223E-1,-3.778201580E0,3.871322086E0
1.526857209E0,-3.133738637E-1,-9.224064946E-1,-3.652363300E0,3.780052195E0
1.528594807E0,-4.575380683E-1,-9.450085163E-1,-3.570507288E0,3.721680329E0
1.530924247E0,-7.312057018E-1,-9.211847782E-1,-3.359758854E0,3.559666098E0
1.532808307E0,-1.004262447E0,-8.509352803E-1,-3.105028152E0,3.372511489E0
1.535030786E0,-1.117272496E0,-7.776314616E-1,-2.965750694E0,3.263232401E0
1.537000017E0,-1.345125318E0,-6.218608022E-1,-2.641992092E0,3.029223530E0
1.539116786E0,-1.606575608E0,-4.459316432E-1,-2.300518513E0,2.841183845E0
1.540892076E0,-1.793500304E0,-2.370157093E-1,-1.948660135E0,2.658965233E0
1.543238824E0,-1.900401831E0,-1.325577646E-1,-1.769676566E0,2.600164192E0
1.545027114E0,-2.045176744E0,8.002334833E-2,-1.404990077E0,2.482568986E0
1.547277863E0,-2.185675859E0,2.681698501E-1,-1.040914416E0,2.435692274E0
1.549092730E0,-2.230268955E0,3.506366611E-1,-8.600982428E-1,2.415950055E0
1.551493978E0,-2.311514139E0,5.094616413E-1,-5.161811113E-1,2.422620837E0
1.553473730E0,-2.328618288E0,6.359107494E-1,-2.119702399E-1,2.423174982E0
1.555524555E0,-2.304794550E0,7.391469479E-1,4.337143153E-2,2.420805075E0
1.557559901E0,-2.279749155E0,7.837401032E-1,1.484402567E-1,2.415272090E0
1.559742440E0,-2.207056046E0,8.637634516E-1,3.078760803E-1,2.389973090E0
1.561449076E0,-2.096489429E0,9.059131742E-1,3.958406746E-1,2.317894831E0
1.563734324E0,-1.960877419E0,9.108000994E-1,4.227187634E-1,2.203017981E0
1.565772247E0,-1.886962771E0,9.040805697E-1,4.282165468E-1,2.135733969E0
1.567907593E0,-1.722640038E0,8.576548100E-1,4.123340547E-1,1.968014188E0
1.569683845E0,-1.569923639E0,7.831292152E-1,3.909537494E-1,1.797441636E0
1.572010632E0,-1.412931323E0,6.969972253E-1,3.762930036E-1,1.619807544E0
1.573918768E0,-1.342070937E0,6.481280327E-1,3.689626157E-1,1.535368933E0
1.576117709E0,-1.195463300E0,5.485569835E-1,3.579670191E-1,1.363153569E0
1.577938730E0,-1.064738154E0,4.477642179E-1,3.561344445E-1,1.208714968E0
1.580204901E0,-9.443976879E-1,3.457497358E-1,3.585779071E-1,1.067711566E0
1.581975230E0,-8.845328689E-1,3.042109013E-1,3.634648323E-1,1.003518487E0
1.584328170E0,-7.751879692E-1,2.223549485E-1,3.695734739E-1,8.870978883E-1
1.586158038E0,-6.695083380E-1,1.569923609E-1,3.799581826E-1,7.856565640E-1
1.588367132E0,-6.200281978E-1,1.264491081E-1,3.860668242E-1,7.412637423E-1
1.590207230E0,-5.180137157E-1,7.880161703E-2,3.970624208E-1,6.574241177E-1
1.592582824E0,-4.172209501E-1,3.787364438E-2,4.050036669E-1,5.826969232E-1
1.594462961E0,-3.182607889E-1,3.665191587E-3,4.123340547E-1,5.208864906E-1
1.596587824E0,-2.748893499E-1,-9.162978269E-3,4.184426963E-1,5.007418546E-1
1.598518268E0,-1.826487035E-1,-3.787364438E-2,4.257730842E-1,4.648415655E-1
1.600806863E0,-9.040805697E-2,-6.536258012E-2,4.337143302E-1,4.478325623E-1
1.602579191E0,-6.719517522E-3,-8.185594529E-2,4.465425014E-1,4.540327668E-1
1.604798786E0,3.726277873E-2,-8.613199741E-2,4.520402849E-1,4.616791687E-1
1.606641307E0,1.191187203E-1,-9.162978828E-2,4.605923891E-1,4.844900789E-1
1.608969363E0,2.070833147E-1,-8.979719132E-2,4.673119187E-1,5.189676909E-1
1.610805999E0,2.461786866E-1,-8.796459436E-2,4.697553813E-1,5.375982086E-1
1.613072055E0,3.329215646E-1,-7.880161703E-2,4.703662395E-1,5.816277696E-1
1.615037114E0,4.166100919E-1,-6.169738993E-2,4.685336351E-1,6.299954792E-1
1.617122824E0,5.057964325E-1,-3.481931984E-2,4.563163519E-1,6.821048520E-1
1.618960768E0,5.571091175E-1,-1.038470957E-2,4.477642179E-1,7.148224995E-1
1.621174901E0,6.829473376E-1,6.841690838E-2,4.172209501E-1,8.032255353E-1
1.622962999E0,8.472700715E-1,1.912008226E-1,3.707951903E-1,9.444116697E-1
1.625297478E0,1.046412110E0,3.610213697E-1,3.164281845E-1,1.151278216E0
1.627074268E0,1.160033107E0,4.605923891E-1,2.822197378E-1,1.279636721E0
1.629338055E0,1.409876943E0,6.805039048E-1,2.113593817E-1,1.579718755E0
1.631182345E0,1.684155464E0,9.224064946E-1,1.350012124E-1,1.924951609E0
1.633554939E0,1.960877419E0,1.167974353E0,5.925392732E-2,2.283137177E0
1.635447768E0,2.108095884E0,1.293812633E0,2.504547499E-2,2.473589833E0
1.637568978E0,2.379320145E0,1.530828357E0,-4.031710699E-2,2.829527395E0
1.639604170E0,2.634050846E0,1.740965962E0,-9.529497474E-2,3.158839577E0
1.641786862E0,2.745228529E0,1.835039139E0,-1.154535338E-1,3.304085022E0
1.643548461E0,2.952311754E0,1.993864179E0,-1.466076523E-1,3.565548045E0
1.645778709E0,3.122743130E0,2.112371922E0,-1.655444801E-1,3.773730881E0
1.647615884E0,3.241250992E0,2.184454203E0,-1.667662114E-1,3.912206427E0
1.649952016E0,3.293785334E0,2.205223560E0,-1.637118906E-1,3.967219979E0
1.651729614E0,3.362813234E0,2.230268955E0,-1.447750628E-1,4.037768230E0
1.654054670E0,3.411682367E0,2.228436470E0,-1.160643995E-1,4.076637907E0
1.655958307E0,3.417180300E0,2.221716881E0,-9.957103431E-2,4.077138885E0
1.658161824E0,3.425121546E0,2.204612732E0,-5.864306539E-2,4.073722365E0
1.659990268E0,3.411682367E0,2.181399822E0,-7.941247895E-3,4.049462288E0
1.662248939E0,3.379917383E0,2.163684607E0,4.337143153E-2,4.013384317E0
1.664064807E0,3.359758854E0,2.149024010E0,7.024950534E-2,3.988886905E0
1.666372170E0,3.310889721E0,2.127643585E0,1.203404516E-1,3.937428068E0
1.668171422E0,3.250413895E0,2.113593817E0,1.722639948E-1,3.880997835E0
1.670411401E0,3.180775404E0,2.101376534E0,2.254092693E-1,3.818890525E0
1.672305576E0,3.142290831E0,2.094046116E0,2.535090744E-1,3.784611955E0
1.674626939E0,3.062878370E0,2.077552795E0,3.066543639E-1,3.713689059E0
1.676479922E0,2.976746321E0,2.060448408E0,3.616322279E-1,3.638302375E0
1.678633132E0,2.879007816E0,2.037846565E0,4.105014503E-1,3.551058444E0
1.680668324E0,2.827084303E0,2.024407387E0,4.343251884E-1,3.504178833E0
1.682851516E0,2.717739582E0,1.994475007E0,4.819726646E-1,3.405339431E0
1.684567961E0,2.607172966E0,1.957212210E0,5.290092826E-1,3.302708181E0
1.686842708E0,2.548529863E0,1.937053680E0,5.510004759E-1,3.248196877E0
1.688784576E0,2.433687210E0,1.899180055E0,5.925393105E-1,3.143377348E0
1.691012901E0,2.317622662E0,1.854586840E0,6.316346526E-1,3.034770087E0
1.692940076E0,2.202169180E0,1.808161139E0,6.658431292E-1,2.926148130E0
1.695115747E0,2.147191286E0,1.783115625E0,6.829473376E-1,2.873386298E0
1.697087901E0,2.031126976E0,1.732413888E0,7.092145681E-1,2.762194775E0
1.699223862E0,1.918116927E0,1.670716405E0,7.250970602E-1,2.645039054E0
1.701040499E0,1.804495931E0,1.607797384E0,7.391469479E-1,2.527361510E0
1.703312055E0,1.748296380E0,1.571756244E0,7.428121567E-1,2.465507620E0
1.705200037E0,1.640173197E0,1.501506805E0,7.483099103E-1,2.346200870E0
1.707435670E0,1.533271790E0,1.428202987E0,7.513642311E-1,2.226035570E0
1.709221768E0,1.482569933E0,1.386664152E0,7.489207983E-1,2.163731369E0
1.711476247E0,1.381166339E0,1.307251573E0,7.483099103E-1,2.043647438E0
1.713338691E0,1.281595230E0,1.225395679E0,7.397578359E-1,1.921281489E0
1.715692939E0,1.189354658E0,1.138652802E0,7.275404930E-1,1.800113850E0
1.717650076E0,1.143539786E0,1.095281363E0,7.220427394E-1,1.740307508E0
1.719706170E0,1.061072946E0,1.005484223E0,7.043276429E-1,1.622637282E0
1.721741785E0,9.841039181E-1,9.108000994E-1,6.866125464E-1,1.506470754E0
1.723924478E0,9.120218158E-1,8.173376918E-1,6.609562039E-1,1.391649309E0
1.725791537E0,8.778133392E-1,7.696902156E-1,6.487388611E-1,1.335605255E0
1.727918208E0,8.191702962E-1,6.719517708E-1,6.224716902E-1,1.228832845E0
1.729786191E0,7.690793276E-1,5.705481172E-1,5.937610269E-1,1.126747675E0
1.732092016E0,7.244861722E-1,4.673119187E-1,5.638286471E-1,1.030127850E0
1.733824960E0,7.061602473E-1,4.172209501E-1,5.479460955E-1,9.863977594E-1
1.736195708E0,6.774495840E-1,3.121521473E-1,5.186246037E-1,9.084868637E-1
1.738096999E0,6.566801667E-1,2.070833147E-1,4.862487316E-1,8.429413797E-1
1.740304401E0,6.548475623E-1,9.834930301E-2,4.526511431E-1,8.021165580E-1
1.742214845E0,6.609562039E-1,4.276056588E-2,4.398229718E-1,7.950696926E-1
1.744391977E0,6.921103001E-1,-6.963863969E-2,4.111123085E-1,8.080096149E-1
1.746380054E0,7.544185519E-1,-1.844813079E-1,3.878994286E-1,8.681282573E-1
1.748515362E0,7.935139537E-1,-2.412917763E-1,3.799581826E-1,9.122797468E-1
1.750331999E0,8.918632865E-1,-3.640756905E-1,3.628539443E-1,1.029385358E0
1.752554862E0,1.012814522E0,-4.850270152E-1,3.518583775E-1,1.176795980E0
1.754407922E0,1.149037480E0,-6.065891981E-1,3.445279896E-1,1.344223613E0
1.756769593E0,1.215011001E0,-6.670648456E-1,3.414736688E-1,1.427526359E0
1.758623653E0,1.354288220E0,-7.819074988E-1,3.359758854E-1,1.599486079E0
1.760776170E0,1.488067746E0,-8.979719281E-1,3.274237812E-1,1.768588571E0
1.762811593E0,1.608408213E0,-9.560040832E-1,3.219259977E-1,1.898567126E0
1.764994631E0,1.660942554E0,-1.058629513E0,3.084869385E-1,1.993637581E0
1.766829884E0,1.756848454E0,-1.156367898E0,2.932153046E-1,2.123600344E0
1.768985823E0,1.835039139E0,-1.246775985E0,2.785545588E-1,2.235936412E0
1.771021093E0,1.863139033E0,-1.290758252E0,2.712241709E-1,2.282741000E0
1.773116516E0,1.912008166E0,-1.367727280E0,2.504547536E-1,2.364144819E0
1.774865768E0,1.943773150E0,-1.442863703E0,2.333505303E-1,2.431987293E0
1.777184131E0,1.960266590E0,-1.505782843E0,2.193006277E-1,2.481555931E0
1.779155747E0,1.965153456E0,-1.534493446E0,2.119702399E-1,2.502284881E0
1.781292093E0,1.963931799E0,-1.591303945E0,1.966986060E-1,2.535343507E0
1.783261170E0,1.944384098E0,-1.642616630E0,1.869247705E-1,2.552206846E0
1.785378362E0,1.918116927E0,-1.690875053E0,1.771509200E-1,2.563125717E0
1.787215691E0,1.900401831E0,-1.713477015E0,1.728748679E-1,2.564647407E0
1.789501362E0,1.863139033E0,-1.762346268E0,1.704314053E-1,2.570252573E0
1.791287230E0,1.816102386E0,-1.812437177E0,1.667662114E-1,2.571180150E0
1.793540285E0,1.793500304E0,-1.839315295E0,1.667662114E-1,2.574399943E0
1.795389768E0,1.742187738E0,-1.886962771E0,1.692096740E-1,2.573806234E0
1.797755631E0,1.686598897E0,-1.929723263E0,1.710422635E-1,2.568599456E0
1.799724307E0,1.635286212E0,-1.968818665E0,1.692096740E-1,2.564963907E0
1.801768708E0,1.607797384E0,-1.985312104E0,1.710422635E-1,2.560416379E0
1.803730230E0,1.553430319E0,-2.019520521E0,1.765400618E-1,2.553972452E0
1.805986823E0,1.503339410E0,-2.048231125E0,1.789835095E-1,2.547020852E0
1.807909746E0,1.454470158E0,-2.074498415E0,1.863138974E-1,2.540421221E0
1.809979131E0,1.433700681E0,-2.086104870E0,1.899790913E-1,2.538389888E0
1.811843691E0,1.398881435E0,-2.102598190E0,2.015855312E-1,2.533461100E0
1.814151939E0,1.364672899E0,-2.112982988E0,2.162462920E-1,2.524636942E0
1.816030230E0,1.354899168E0,-2.113593817E0,2.235766798E-1,2.520519214E0
1.818254746E0,1.338405728E0,-2.113593817E0,2.412917763E-1,2.513330547E0
1.820172614E0,1.339016676E0,-2.103209019E0,2.626720667E-1,2.507080064E0
1.822361900E0,1.350623012E0,-2.083661318E0,2.877175212E-1,2.499721660E0
1.824194114E0,1.368949056E0,-2.066557169E0,2.974913716E-1,2.496633967E0
1.826449016E0,1.409266114E0,-2.029905319E0,3.274237812E-1,2.492740042E0
1.828437131E0,1.466076612E0,-1.977370739E0,3.616322279E-1,2.488001917E0
1.830572516E0,1.541213036E0,-1.915062547E0,3.933972120E-1,2.489490620E0
1.832367922E0,1.588249683E0,-1.880854130E0,4.098905921E-1,2.495628100E0
1.834611785E0,1.681101203E0,-1.807550311E0,4.367686510E-1,2.506811967E0
1.836460576E0,1.780672193E0,-1.728748679E0,4.581489265E-1,2.523740457E0
1.838827477E0,1.879632354E0,-1.648725271E0,4.746423066E-1,2.544916133E0
1.840643191E0,1.929112434E0,-1.608408213E0,4.770857692E-1,2.556572431E0
1.842831862E0,2.014633656E0,-1.534493446E0,4.746423066E-1,2.576568303E0
1.844748922E0,2.086715698E0,-1.465465665E0,4.642575979E-1,2.591815413E0
1.847049477E0,2.143526077E0,-1.404990077E0,4.428772926E-1,2.600930883E0
1.848971246E0,2.161852121E0,-1.381777167E0,4.251621962E-1,2.600706755E0
1.851040439E0,2.183232307E0,-1.342070937E0,3.891211748E-1,2.592117474E0
1.852903999E0,2.180788994E0,-1.312138557E0,3.414736688E-1,2.567908195E0
1.855211015E0,2.170404196E0,-1.302364707E0,3.170390725E-1,2.550945310E0
1.857094576E0,2.137417555E0,-1.290147424E0,2.614503205E-1,2.510257048E0
1.859313708E0,2.085494041E0,-1.285260439E0,2.040289938E-1,2.458212282E0
1.861336054E0,2.012190104E0,-1.284038782E0,1.404990107E-1,2.391109487E0
1.863426285E0,1.971262097E0,-1.286482215E0,1.093448773E-1,2.356452216E0
1.865307499E0,1.875356317E0,-1.291369081E0,4.764748737E-2,2.277469143E0
1.867513131E0,1.767843962E0,-1.296866894E0,-1.282817032E-2,2.192555718E0
1.869379383E0,1.713477015E0,-1.298088670E0,-4.153883830E-2,2.150061197E0
1.871636785E0,1.593747377E0,-1.299921274E0,-9.712757170E-2,2.058946281E0
1.873416383E0,1.467298269E0,-1.298088670E0,-1.466076523E-1,1.964559037E0
1.875676785E0,1.336573124E0,-1.286482215E0,-1.857030392E-1,1.864389933E0
1.877557691E0,1.268767118E0,-1.280373573E0,-2.064724565E-1,1.814320083E0
1.879893785E0,1.137431145E0,-1.261436701E0,-2.327396572E-1,1.714391993E0
1.881883362E0,9.999864101E-1,-1.230282545E0,-2.553416789E-1,1.605854082E0
1.883907938E0,8.655960560E-1,-1.192408919E0,-2.687807083E-1,1.497777898E0
1.885798499E0,7.947356701E-1,-1.169806957E0,-2.718350291E-1,1.440120615E0
1.888127015E0,6.566801667E-1,-1.114218235E0,-2.700024247E-1,1.321216268E0
1.889783999E0,5.161811113E-1,-1.056796908E0,-2.669481039E-1,1.206036457E0
1.892119246E0,3.817907870E-1,-9.889908433E-1,-2.522873580E-1,1.089732079E0
1.893970345E0,3.127630055E-1,-9.511171579E-1,-2.431243658E-1,1.030317428E0
1.896293900E0,1.740965992E-1,-8.759807348E-1,-2.241875380E-1,9.208213322E-1
1.898077537E0,4.214970022E-2,-7.959573865E-1,-1.979203373E-1,8.212777960E-1
1.900395977E0,-9.346238524E-2,-7.122688890E-1,-1.673770845E-1,7.376159407E-1
1.902250768E0,-1.582140923E-1,-6.676757336E-1,-1.527163088E-1,7.029543763E-1
1.904502861E0,-2.901609838E-1,-5.784893632E-1,-1.172861308E-1,6.577228720E-1
1.906311999E0,-4.202753007E-1,-4.862487316E-1,-8.185594529E-2,6.478962519E-1
1.908590246E0,-4.856378734E-1,-4.410447180E-1,-6.352998316E-2,6.590907723E-1
1.910356499E0,-6.120869517E-1,-3.475823104E-1,-2.748893574E-2,7.044285206E-1
1.912713438E0,-7.403686643E-1,-2.504547536E-1,9.162978269E-3,7.816375777E-1
1.914482345E0,-8.710938692E-1,-1.576032341E-1,4.398229718E-2,8.863282410E-1
1.916752246E0,-9.303477407E-1,-1.123992056E-1,5.986479297E-2,9.390230526E-1
1.918645845E0,-1.054353356E0,-1.710422710E-2,9.285151958E-2,1.058572132E0
1.920968208E0,-1.175915599E0,7.391469181E-2,1.258382350E-1,1.184937188E0
1.922924400E0,-1.292590857E0,1.643227488E-1,1.533271819E-1,1.311984113E0
1.924993708E0,-1.350623012E0,2.064724565E-1,1.692096740E-1,1.376751724E0
1.926880807E0,-1.459967971E0,2.852740586E-1,1.905899495E-1,1.499737408E0
1.929212169E0,-1.563204169E0,3.628539443E-1,2.180788964E-1,1.619514947E0
1.931045114E0,-1.612073421E0,3.988949955E-1,2.302961946E-1,1.676584108E0
1.933204707E0,-1.698205352E0,4.752531648E-1,2.583959997E-1,1.782283782E0
1.935108306E0,-1.769065738E0,5.436700583E-1,2.828305960E-1,1.872208285E0
1.937375707E0,-1.828319669E0,6.175847650E-1,3.090978265E-1,1.954406616E0
1.939328422E0,-1.851532578E0,6.566801667E-1,3.207042515E-1,1.990540868E0
1.941478131E0,-1.885130167E0,7.305948138E-1,3.433062732E-1,2.050693474E0
1.943441306E0,-1.900401831E0,8.045095205E-1,3.616322279E-1,2.095123041E0
1.945584246E0,-1.885130167E0,8.827002645E-1,3.775147200E-1,2.115512436E0
1.947399691E0,-1.874134541E0,9.236282706E-1,3.860668242E-1,2.124739290E0
1.949670092E0,-1.824043632E0,1.010371089E0,3.964515328E-1,2.122535918E0
1.951471576E0,-1.753794074E0,1.103222609E0,4.105014503E-1,2.112203877E0
1.953792707E0,-1.656055689E0,1.205847979E0,4.263839424E-1,2.092461005E0
1.955570499E0,-1.598634362E0,1.254106402E0,4.361577928E-1,2.078135778E0
1.957831015E0,-1.470963478E0,1.367116451E0,4.587597847E-1,2.059903271E0
1.959863422E0,-1.325577617E0,1.488678575E0,4.862487316E-1,2.051769418E0
1.962045246E0,-1.177748203E0,1.613295078E0,5.045747161E-1,2.060195982E0
1.964033054E0,-1.102000952E0,1.686598897E0,5.510004759E-1,2.088689412E0
1.966056669E0,-9.541715384E-1,1.831984878E0,6.114761233E-1,2.154185453E0
1.967918460E0,-8.093964458E-1,1.987755537E0,6.902777553E-1,2.254501732E0
1.970273130E0,-7.446447611E-1,2.066557169E0,7.342600226E-1,2.316094155E0
1.972109191E0,-6.298020482E-1,2.234544992E0,8.222246170E-1,2.462903828E0
1.974264746E0,-5.357288122E-1,2.400089502E0,9.010262489E-1,2.619023345E0
1.976108653E0,-4.654793143E-1,2.565023184E0,9.639453292E-1,2.779425394E0
1.978438669E0,-4.453207552E-1,2.647490025E0,9.871582389E-1,2.860418744E0
1.980407938E0,-4.654793143E-1,2.829527855E0,9.981538057E-1,3.036315184E0
1.982541361E0,-6.194173694E-1,3.046385050E0,9.584475756E-1,3.253115661E0
1.984436306E0,-7.580837607E-1,3.165503740E0,9.156870246E-1,3.381358846E0
1.986649477E0,-1.174693823E0,3.430008411E0,7.782423496E-1,3.708169958E0
1.988420883E0,-1.758070230E0,3.695123911E0,5.729916096E-1,4.131957289E0
1.990736707E0,-2.360383272E0,3.894876719E0,3.408628106E-1,4.567018864E0
1.992529614E0,-2.649322510E0,3.962071896E0,2.199114859E-1,4.771297992E0
1.994861361E0,-3.186883926E0,4.016438961E0,-2.015855350E-2,5.127223172E0
1.996619037E0,-3.643811226E0,3.964515448E0,-2.437352389E-1,5.390190150E0
1.998902400E0,-4.017049789E0,3.847229242E0,-4.477642179E-1,5.580175145E0
2.000746960E0,-4.169765949E0,3.769649506E0,-5.406157374E-1,5.647076309E0
2.003118746E0,-4.425107956E0,3.582113743E0,-7.092145681E-1,5.737255842E0
2.005034230E0,-4.609589100E0,3.368921757E0,-8.503243923E-1,5.772434239E0
2.007125207E0,-4.739703655E0,3.135571241E0,-9.602801800E-1,5.763569708E0
2.009159976E0,-4.791016102E0,3.020728588E0,-1.004873276E0,5.752252323E0
2.011342399E0,-4.854546070E0,2.781269550E0,-1.081231475E0,5.698345318E0
2.013148653E0,-4.893030643E0,2.536923409E0,-1.129489779E0,5.626142233E0
2.015333938E0,-4.902804375E0,2.412306786E0,-1.147204876E0,5.583260140E0
2.017369399E0,-4.896695614E0,2.164295673E0,-1.174693823E0,5.481031771E0
2.019465861E0,-4.877758980E0,1.905899525E0,-1.196684957E0,5.371874957E0
2.021209076E0,-4.846604824E0,1.649336219E0,-1.215011001E0,5.261762064E0
2.023532630E0,-4.831943989E0,1.519832730E0,-1.220508814E0,5.210299032E0
2.025473191E0,-4.794681072E0,1.257160664E0,-1.238834739E0,5.109220198E0
2.027638515E0,-4.743979454E0,9.981538057E-1,-1.250441194E0,5.006521273E0
2.029461922E0,-4.721988201E0,8.704829812E-1,-1.256549835E0,4.963247997E0
2.031724438E0,-4.673729897E0,6.084218025E-1,-1.262658477E0,4.879368265E0
2.033546960E0,-4.628525734E0,3.530801237E-1,-1.271210551E0,4.812888146E0
2.035846822E0,-4.573548317E0,9.590584040E-2,-1.283427835E0,4.751181868E0
2.037611037E0,-4.546059132E0,-3.726277873E-2,-1.286482215E0,4.724730535E0
2.039885707E0,-4.498411655E0,-2.999348342E-1,-1.295645237E0,4.690881037E0
2.041717537E0,-4.443433762E0,-5.705481172E-1,-1.301753879E0,4.665210811E0
2.044101784E0,-4.379903793E0,-8.564330935E-1,-1.313360333E0,4.652090954E0
2.046049306E0,-4.353025913E0,-1.005484223E0,-1.313971162E0,4.656860889E0
2.048114476E0,-4.293160915E0,-1.320079803E0,-1.323134065E0,4.682363195E0
2.049982883E0,-4.233907223E0,-1.653001308E0,-1.320079803E0,4.732968876E0
2.052332361E0,-4.161213875E0,-1.990198970E0,-1.310916781E0,4.795320183E0
2.054070576E0,-4.119675159E0,-2.158186913E0,-1.306640744E0,4.830818171E0
2.056323553E0,-4.050036430E0,-2.528371334E0,-1.282817006E0,4.943791679E0
2.058155537E0,-3.996891260E0,-2.904664278E0,-1.249219418E0,5.096348052E0
2.060496130E0,-3.898541927E0,-3.268739939E0,-1.218676209E0,5.231487518E0
2.062242383E0,-3.871663809E0,-3.450777769E0,-1.203404546E0,5.324080236E0
2.064598707E0,-3.762319088E0,-3.814242601E0,-1.163698316E0,5.482488971E0
2.066481653E0,-3.674965382E0,-4.159381390E0,-1.123381138E0,5.662844628E0
2.068705784E0,-3.612657070E0,-4.326758385E0,-1.092837930E0,5.741639484E0
2.070587191E0,-3.518583775E0,-4.629747868E0,-1.031751394E0,5.905887574E0
2.072791784E0,-3.392134666E0,-4.896084785E0,-9.608910084E-1,6.033368491E0
2.074575768E0,-3.268739939E0,-5.137376785E0,-8.747590184E-1,6.151626156E0
2.076914207E0,-3.203377247E0,-5.240002155E0,-8.240572214E-1,6.196637691E0
2.078673306E0,-3.079982519E0,-5.412266254E0,-7.202101350E-1,6.268781458E0
2.080953015E0,-2.961474657E0,-5.539937019E0,-5.968153477E-1,6.310104823E0
2.082988361E0,-2.896723032E0,-5.590638638E0,-5.302310586E-1,6.318812363E0
2.085168322E0,-2.770273924E0,-5.635231972E0,-3.909537494E-1,6.291510297E0
2.087072537E0,-2.612059832E0,-5.574145317E0,-2.431243658E-1,6.160605655E0
2.089173438E0,-2.444682598E0,-5.411044121E0,-1.001819000E-1,5.938510579E0
2.091149306E0,-2.346944332E0,-5.312695026E0,-3.115412779E-2,5.808084600E0
2.093390476E0,-2.169182539E0,-5.079955578E0,1.105666086E-1,5.524810090E0
2.095145076E0,-1.968818665E0,-4.832554817E0,2.419026345E-1,5.223825215E0
2.097381399E0,-1.751961470E0,-4.517959118E0,3.457497358E-1,4.858072299E0
2.099277960E0,-1.632231951E0,-4.327369213E0,3.860668242E-1,4.641050855E0
2.101625361E0,-1.401324868E0,-3.905261517E0,4.422664344E-1,4.172574565E0
2.103277845E0,-1.171028733E0,-3.444058180E0,4.660901725E-1,3.667435765E0
2.105603091E0,-9.523389339E-1,-2.966361523E0,4.721988440E-1,3.151066784E0
2.107624515E0,-8.546004891E-1,-2.717128515E0,4.660901725E-1,2.886237934E0
2.109652515E0,-6.707300544E-1,-2.221106052E0,4.495968223E-1,2.363329898E0
2.111413460E0,-5.253441334E-1,-1.728748679E0,4.233296216E-1,1.855738781E0
2.113703322E0,-4.667010605E-1,-1.483791709E0,4.098905921E-1,1.608557743E0
2.115483460E0,-3.762930036E-1,-1.002429843E0,3.885102868E-1,1.139035670E0
2.117824822E0,-3.158173263E-1,-5.345070958E-1,3.720169365E-1,7.237644784E-1
2.119604076E0,-3.097086847E-1,-9.101892263E-2,3.536909819E-1,4.788540741E-1
2.121863476E0,-3.262020350E-1,1.197295859E-1,3.469714522E-1,4.910520645E-1
2.123703883E0,-3.970624208E-1,5.204572082E-1,3.341432810E-1,7.349734715E-1
2.126078553E0,-5.076290369E-1,8.747590184E-1,3.115412891E-1,1.058276218E0
2.128007076E0,-5.687155724E-1,1.028697014E0,2.962696552E-1,1.212200750E0
2.130090553E0,-7.141014934E-1,1.302975535E0,2.669481039E-1,1.509618322E0
2.132100845E0,-8.692612648E-1,1.529606581E0,2.400700450E-1,1.775653419E0
2.134307591E0,-1.031751394E0,1.704313993E0,2.107485086E-1,2.003400125E0
2.136059153E0,-1.114829063E0,1.770898342E0,2.015855312E-1,2.102275316E0
2.138297668E0,-1.273043156E0,1.863139033E0,1.679879427E-1,2.262773935E0
2.140178306E0,-1.423316002E0,1.919338584E0,1.343903542E-1,2.393271779E0
2.142469899E0,-1.569312811E0,1.929723263E0,9.896016866E-2,2.489250426E0
2.144236268E0,-1.638340592E0,1.918116927E0,7.757988572E-2,2.523757334E0
2.146571437E0,-1.762346268E0,1.874745488E0,3.848451003E-2,2.573327820E0
2.148542937E0,-1.880243182E0,1.803274155E0,-1.221730490E-3,2.605208935E0
2.150677899E0,-1.971873045E0,1.718363881E0,-2.748893574E-2,2.615686024E0
2.152480614E0,-2.019520521E0,1.671938181E0,-4.092797264E-2,2.622120423E0
2.154764591E0,-2.090991735E0,1.584584475E0,-5.131268129E-2,2.624078388E0
2.156542614E0,-2.152689219E0,1.496619821E0,-5.619960278E-2,2.622422574E0
2.158886899E0,-2.177734613E0,1.454470158E0,-5.314527452E-2,2.619319741E0
2.160672999E0,-2.218051672E0,1.376279354E0,-3.848451003E-2,2.610628112E0
2.162925091E0,-2.246762276E0,1.300532103E0,-4.886921961E-3,2.596025492E0
2.164755652E0,-2.259590626E0,1.241278172E0,3.970624134E-2,2.578390560E0
2.167140130E0,-2.268753529E0,1.215011001E0,6.841690838E-2,2.574524263E0
2.169066345E0,-2.275473118E0,1.169196129E0,1.295034289E-1,2.561555901E0
2.171146322E0,-2.274862289E0,1.138041973E0,2.009746730E-1,2.551573786E0
2.173181822E0,-2.271807909E0,1.123381138E0,2.858849466E-1,2.550456147E0
2.175365130E0,-2.270586014E0,1.112996459E0,3.280346394E-1,2.549887976E0
2.177287707E0,-2.266309977E0,1.079398870E0,4.239404798E-1,2.545778537E0
2.179357514E0,-2.251038313E0,1.034805775E0,5.290092826E-1,2.533347055E0
2.181215152E0,-2.246151447E0,1.007316828E0,5.827654600E-1,2.529723127E0
2.183528553E0,-2.214997292E0,9.682214260E-1,6.921103001E-1,2.514494462E0
2.185498899E0,-2.174069405E0,9.217956662E-1,8.142833710E-1,2.497867577E0
2.187631399E0,-2.132530689E0,8.582656980E-1,9.352346659E-1,2.481727428E0
2.189531306E0,-2.106874228E0,8.222246170E-1,9.957103729E-1,2.471115432E0
2.191738399E0,-2.061670303E0,7.287622094E-1,1.122770309E0,2.458087054E0
2.193550114E0,-2.012190104E0,6.181956530E-1,1.240056396E0,2.443115786E0
2.195825014E0,-1.949881911E0,4.960225821E-1,1.357342601E0,2.427026330E0
2.197634652E0,-1.921171188E0,4.282165468E-1,1.412931323E0,2.422940996E0
2.199948245E0,-1.853365183E0,2.974913716E-1,1.510669708E0,2.409478488E0
2.201721960E0,-1.792889476E0,1.710422635E-1,1.599245191E0,2.408587409E0
2.203987745E0,-1.726916075E0,3.665191308E-2,1.670105577E0,2.402672497E0
2.205813345E0,-1.693929315E0,-2.748893574E-2,1.698205352E0,2.398760843E0
2.208203668E0,-1.633453608E0,-1.551597714E-1,1.737911582E0,2.390100816E0
2.210128614E0,-1.577254057E0,-2.761110961E-1,1.759291887E0,2.378881174E0
2.212217245E0,-1.544878244E0,-3.371976018E-1,1.759902716E0,2.365926580E0
2.214252706E0,-1.490511179E0,-4.331034720E-1,1.754405022E0,2.342464337E0
2.216434129E0,-1.436144233E0,-5.002986193E-1,1.739133358E0,2.310280027E0
2.218164306E0,-1.392772794E0,-5.473352671E-1,1.712255239E0,2.274029453E0
2.220425783E0,-1.370781660E0,-5.607742667E-1,1.695761919E0,2.251470325E0
2.222252191E0,-1.332297087E0,-5.693264008E-1,1.657277465E0,2.201298861E0
2.224597937E0,-1.296866894E0,-5.577199459E-1,1.613906026E0,2.144203334E0
2.226330922E0,-1.265712738E0,-5.375614166E-1,1.559538960E0,2.079221677E0
2.228699553E0,-1.248608589E0,-5.235115290E-1,1.534493446E0,2.046401199E0
2.230670783E0,-1.217454433E0,-4.862487316E-1,1.475239515E0,1.973566506E0
2.232805591E0,-1.189354658E0,-4.410447180E-1,1.412320495E0,1.898350370E0
2.234607345E0,-1.177137375E0,-4.233296216E-1,1.378111959E0,1.861196641E0
2.236892091E0,-1.150259256E0,-3.781255782E-1,1.308473349E0,1.782744461E0
2.238878629E0,-1.122159481E0,-3.378084898E-1,1.238834739E0,1.705305834E0
2.241013322E0,-1.095892191E0,-2.999348342E-1,1.169196129E0,1.630325178E0
2.242800383E0,-1.083674908E0,-2.761110961E-1,1.134987593E0,1.593356670E0
2.245051476E0,-1.053742528E0,-2.309070677E-1,1.069625020E0,1.519140900E0
2.246869614E0,-1.027475357E0,-1.869247705E-1,1.008538485E0,1.451825180E0
2.249266860E0,-9.999864101E-1,-1.282816976E-1,9.547823668E-1,1.388538218E0
2.251164537E0,-9.828822017E-1,-9.773843735E-2,9.309586287E-1,1.357311384E0
2.253272322E0,-9.492846131E-1,-6.291911751E-2,8.784242272E-1,1.294885792E0
2.255307860E0,-9.071348906E-1,-4.031710699E-2,8.246681094E-1,1.226620018E0
2.257491245E0,-8.631525636E-1,-2.932153270E-2,7.764097452E-1,1.161337243E0
2.259334652E0,-8.411614299E-1,-2.748893574E-2,7.495316267E-1,1.126989730E0
2.261483399E0,-7.935139537E-1,-1.710422710E-2,6.988298297E-1,1.057506539E0
2.263518860E0,-7.483099103E-1,-8.552113548E-3,6.542366743E-1,9.940153351E-1
2.265615129E0,-7.220427394E-1,-4.276056774E-3,6.334672570E-1,9.605439958E-1
2.267546768E0,-6.750060916E-1,-1.832595794E-3,5.913175344E-1,8.973811947E-1
2.269683283E0,-6.267477274E-1,-3.054326167E-3,5.522221923E-1,8.353271170E-1
2.271591729E0,-5.772676468E-1,-1.527163107E-2,5.180137157E-1,7.757637324E-1
2.273790822E0,-5.522221923E-1,-2.199114859E-2,4.996877611E-1,7.450643052E-1
2.275654306E0,-5.021312237E-1,-3.176499158E-2,4.783074856E-1,6.942066200E-1
2.277878283E0,-4.483750761E-1,-5.375614017E-2,4.538728893E-1,6.402581753E-1
2.279655191E0,-3.970624208E-1,-6.536258012E-2,4.410447180E-1,5.970354062E-1
2.282000975E0,-3.689626157E-1,-8.674286306E-2,4.196644127E-1,5.654873610E-1
2.283751845E0,-3.152064681E-1,-1.075122803E-1,4.007275999E-1,5.210533727E-1
2.286040283E0,-2.626720667E-1,-1.252273768E-1,3.836233616E-1,4.815032649E-1
2.287861268E0,-2.333505303E-1,-1.350012124E-1,3.775147200E-1,4.638913247E-1
2.290256514E0,-1.759291887E-1,-1.612684280E-1,3.610213697E-1,4.327759405E-1
2.292106075E0,-1.191187203E-1,-1.948660165E-1,3.469714522E-1,4.153928533E-1
2.294269014E0,-5.681046844E-2,-2.382374406E-1,3.292563558E-1,4.103586909E-1
2.296169499E0,-2.382374369E-2,-2.651155293E-1,3.213151097E-1,4.172495828E-1
2.298486706E0,3.726277873E-2,-3.103195429E-1,3.078760803E-1,4.387190607E-1
2.300381152E0,1.020144969E-1,-3.573561609E-1,2.926044464E-1,4.729986737E-1
2.302477629E0,1.728748679E-1,-4.062253833E-1,2.742784917E-1,5.197436609E-1
2.304344999E0,2.028072625E-1,-4.306600094E-1,2.620611787E-1,5.433920231E-1
2.306650360E0,2.669481039E-1,-4.789183438E-1,2.425135076E-1,5.995305426E-1
2.308467152E0,3.292563558E-1,-5.357288122E-1,2.168571651E-1,6.651632417E-1
2.310752360E0,3.958406746E-1,-5.882632136E-1,1.875356287E-1,7.334255656E-1
2.312623999E0,4.269948006E-1,-6.114761233E-1,1.722639948E-1,7.654426778E-1
2.314858552E0,4.886921942E-1,-6.444628239E-1,1.423316002E-1,8.212251071E-1
2.316667152E0,5.503895879E-1,-6.646214128E-1,1.111774743E-1,8.700636480E-1
2.318945744E0,5.803219676E-1,-6.682865620E-1,9.468411654E-2,8.901379651E-1
2.320751383E0,6.407976151E-1,-6.676757336E-1,5.619960278E-2,9.271304461E-1
2.323068206E0,6.957755089E-1,-6.566801667E-1,1.099557430E-2,9.567932393E-1
2.324812345E0,7.507534027E-1,-6.285803318E-1,-4.092797264E-2,9.800096959E-1
2.327107398E0,7.751879692E-1,-6.120869517E-1,-6.658431143E-2,9.899496425E-1
2.329027422E0,8.252789378E-1,-5.674937963E-1,-1.227839142E-1,1.009064133E0
2.331323552E0,8.692612648E-1,-5.015203953E-1,-1.887573600E-1,1.021159730E0
2.333175268E0,9.077457786E-1,-4.288274050E-1,-2.571742535E-1,1.036356087E0
2.335329667E0,9.254608750E-1,-3.866777122E-1,-2.932153046E-1,1.044974975E0
2.337273037E0,9.602801800E-1,-2.926044464E-1,-3.677408695E-1,1.069106512E0
2.339546898E0,9.828822017E-1,-1.802052408E-1,-4.422664344E-1,1.092762989E0
2.341282691E0,9.889908433E-1,-1.191187203E-1,-4.783074856E-1,1.105020456E0
2.343537783E0,1.002429843E0,1.038470957E-2,-5.546656251E-1,1.145699519E0
2.345440883E0,1.003040791E0,1.582140923E-1,-6.273586154E-1,1.193608545E0
2.347707360E0,9.920451641E-1,3.249803185E-1,-6.963863969E-1,1.254878412E0
2.349475383E0,9.810495973E-1,4.123340547E-1,-7.330383062E-1,1.292216253E0
2.351808898E0,9.468411207E-1,5.998696685E-1,-7.984008789E-1,1.376152495E0
2.353726191E0,8.881980777E-1,8.045095205E-1,-8.686503768E-1,1.480096237E0
2.355921244E0,8.051204085E-1,1.026864529E0,-9.358455539E-1,1.605763536E0
2.357884652E0,7.519751191E-1,1.144150615E0,-9.676105380E-1,1.676549242E0
2.360007206E0,6.133087277E-1,1.388496757E0,-1.023199320E0,1.830575780E0
2.361775768E0,4.349360466E-1,1.640173197E0,-1.075733662E0,2.009114330E0
2.364129552E0,2.028072625E-1,1.884519339E0,-1.116050839E0,2.199571185E0
2.365889729E0,7.330382615E-2,1.990198970E0,-1.131933331E0,2.290750632E0
2.368168360E0,-2.089159191E-1,2.178345442E0,-1.147204876E0,2.470812367E0
2.369990883E0,-4.899139404E-1,2.315790176E0,-1.153924465E0,2.633332771E0
2.372382667E0,-7.385360599E-1,2.398257017E0,-1.153313637E0,2.761739411E0
2.374219075E0,-8.332201838E-1,2.421469927E0,-1.145983219E0,2.805539167E0
2.376395244E0,-9.560040832E-1,2.416582823E0,-1.130100727E0,2.833892023E0
2.378341768E0,-9.834930301E-1,2.327396631E0,-1.112996459E0,2.760940915E0
2.380613129E0,-9.560040832E-1,2.255925417E0,-1.105055213E0,2.687803995E0
2.382322575E0,-8.368853927E-1,2.076941729E0,-1.110553026E0,2.499478371E0
2.384604475E0,-6.316346526E-1,1.868636727E0,-1.084285855E0,2.250875689E0
2.386467498E0,-3.744603992E-1,1.627955914E0,-1.051909924E0,1.974075868E0
2.388777706E0,-2.174680233E-1,1.505172014E0,-1.023199320E0,1.832968080E0
2.390539845E0,7.696902007E-2,1.280984402E0,-9.547823668E-1,1.599517001E0
2.392879860E0,3.897320330E-1,1.060462117E0,-8.472700715E-1,1.412210159E0
2.394843191E0,5.332853794E-1,9.431759119E-1,-7.874053121E-1,1.339395842E0
2.396993360E0,8.222246170E-1,7.165449262E-1,-6.597344875E-1,1.274652716E0
2.398819229E0,1.069625020E0,5.051855445E-1,-5.002986193E-1,1.284370985E0
2.401080513E0,1.264491081E0,3.255911767E-1,-3.426954150E-1,1.349958317E0
2.402871845E0,1.353066564E0,2.437352389E-1,-2.608394623E-1,1.399368864E0
2.405202783E0,1.464244008E0,8.918632567E-2,-1.160643995E-1,1.471541933E0
2.407076575E0,1.544878244E0,-3.115412779E-2,2.199114859E-2,1.545348822E0
2.409242475E0,1.583973527E0,-1.001819000E-1,1.472185254E-1,1.593951643E0
2.411165768E0,1.598634362E0,-1.233947799E-1,2.076941878E-1,1.616785382E0
2.413458360E0,1.602299571E0,-1.576032341E-1,3.139847219E-1,1.640362491E0
2.415267306E0,1.585806131E0,-1.905899495E-1,4.080579877E-1,1.648519620E0
2.417463552E0,1.554652095E0,-2.064724565E-1,4.862487316E-1,1.641953666E0
2.419356614E0,1.532660842E0,-2.009746730E-1,5.247332454E-1,1.632416936E0
2.421681090E0,1.491732955E0,-1.728748679E-1,5.882632136E-1,1.612825638E0
2.423455383E0,1.436144233E0,-1.209513173E-1,6.542366743E-1,1.582771337E0
2.425671821E0,1.409876943E0,-8.918632567E-2,6.841690540E-1,1.569647887E0
2.427706359E0,1.342070937E0,-2.260201424E-2,7.367035151E-1,1.531142489E0
2.429840513E0,1.279151797E0,6.291911751E-2,7.892379165E-1,1.504355219E0
2.431634883E0,1.213789225E0,1.539380401E-1,8.338310719E-1,1.480626711E0
2.433942206E0,1.176526427E0,2.021963894E-1,8.552113175E-1,1.468497263E0
2.435880883E0,1.111774802E0,2.956587672E-1,8.918632865E-1,1.455636438E0
2.438049052E0,1.034805775E0,3.842342496E-1,9.169087410E-1,1.434984526E0
2.439861960E0,9.621127844E-1,4.618141353E-1,9.388998747E-1,1.421431068E0
2.442135629E0,9.169087410E-1,4.917465150E-1,9.450085163E-1,1.405552336E0
2.443909498E0,8.466592431E-1,5.338962078E-1,9.443976879E-1,1.376140991E0
2.446257398E0,7.733554244E-1,5.626068711E-1,9.358455539E-1,1.338062781E0
2.448099768E0,7.470881939E-1,5.754350424E-1,9.285151958E-1,1.323407241E0
2.450296013E0,6.866125464E-1,5.894849896E-1,9.010262489E-1,1.277019046E0
2.452179768E0,6.438519955E-1,6.072000265E-1,8.576548100E-1,1.232399707E0
2.454510513E0,6.120869517E-1,6.456845403E-1,8.038986921E-1,1.199088016E0
2.456367729E0,6.065891981E-1,6.743952036E-1,7.696902156E-1,1.189614380E0
2.458524129E0,5.998696685E-1,7.379252315E-1,6.969972253E-1,1.179059964E0
2.460421383E0,6.163630486E-1,8.228355050E-1,6.078109145E-1,1.194318125E0
2.462741436E0,6.554583907E-1,9.144652486E-1,5.021312237E-1,1.232074737E0
2.464492652E0,6.805039048E-1,9.602801800E-1,4.440990388E-1,1.257953713E0
2.466733129E0,7.464773059E-1,1.047633886E0,3.237585723E-1,1.326493400E0
2.468565422E0,8.265006542E-1,1.116050839E0,1.875356287E-1,1.401371621E0
2.470905705E0,9.303477407E-1,1.172250390E0,5.253441259E-2,1.497490487E0
2.472705575E0,9.853256345E-1,1.200350165E0,-1.527163107E-2,1.553042288E0
2.475009590E0,1.102000952E0,1.239445567E0,-1.539380401E-1,1.665631511E0
2.476909498E0,1.232115149E0,1.272432327E0,-2.950479090E-1,1.795618288E0
2.479131590E0,1.364062071E0,1.298699498E0,-4.324925840E-1,1.932442898E0
2.480965768E0,1.433700681E0,1.306029916E0,-5.039638281E-1,2.003794232E0
2.483203821E0,1.565647602E0,1.302364707E0,-6.426302195E-1,2.135504587E0
2.485010498E0,1.689653277E0,1.290147424E0,-7.757988572E-1,2.263022854E0
2.487327744E0,1.748907208E0,1.274264932E0,-8.411614299E-1,2.321633066E0
2.489102114E0,1.853365183E0,1.233947754E0,-9.633345008E-1,2.426026158E0
2.491367090E0,1.942551494E0,1.170417786E0,-1.070235968E0,2.507745825E0
2.493210114E0,2.012190104E0,1.085507512E0,-1.163698316E0,2.565429660E0
2.495583205E0,2.034792185E0,1.039692640E0,-1.202793717E0,2.582257297E0
2.497387152E0,2.063502789E0,9.279043078E-1,-1.254717231E0,2.587153937E0
2.499589321E0,2.050063848E0,7.629706860E-1,-1.274264932E0,2.531528623E0
2.501498537E0,2.018909693E0,6.181956530E-1,-1.262047648E0,2.459863102E0
2.503807359E0,1.823432803E0,2.687807009E-2,-1.185689449E0,2.175198632E0
2.505729628E0,1.310305953E0,-1.307862520E0,-9.804387093E-1,2.094914348E0
2.507799244E0,7.690793276E-1,-2.419637203E0,-7.507534027E-1,2.647594735E0
2.509835167E0,5.448917747E-1,-2.806314945E0,-6.426302195E-1,2.930065565E0
2.511930359E0,1.716531366E-1,-3.379306555E0,-4.587597847E-1,3.414621228E0
2.513817652E0,-1.484402567E-1,-3.787364483E0,-2.926044464E-1,3.801549894E0
2.515997782E0,-4.141666293E-1,-4.066529751E0,-1.508837193E-1,4.090350120E0
2.517879075E0,-5.216789246E-1,-4.156327248E0,-8.796459436E-2,4.189861914E0
2.520105974E0,-6.982190013E-1,-4.243680954E0,2.321287990E-2,4.300799536E0
2.521919883E0,-8.265006542E-1,-4.226576805E0,1.221730486E-1,4.308361762E0
2.524192436E0,-9.034696817E-1,-4.117231846E0,1.991420686E-1,4.219894916E0
2.525967152E0,-9.266825914E-1,-4.024991035E0,2.333505303E-1,4.136876349E0
2.528314244E0,-9.388998747E-1,-3.785531998E0,2.846632004E-1,3.910603357E0
2.530076421E0,-9.181304574E-1,-3.482542753E0,3.170390725E-1,3.615464194E0
2.532353898E0,-8.930850029E-1,-3.308446169E0,3.304781020E-1,3.442765262E0
2.534230191E0,-8.155050874E-1,-2.917492390E0,3.445279896E-1,3.048853871E0
2.536569628E0,-6.847799420E-1,-2.466673851E0,3.323107064E-1,2.581440269E0
2.538451691E0,-5.082398653E-1,-1.959044814E0,3.054326177E-1,2.046815436E0
2.540582282E0,-4.037819207E-1,-1.674992561E0,2.907718420E-1,1.747337456E0
2.542469152E0,-1.667662114E-1,-1.061683774E0,2.693915665E-1,1.107950911E0
2.544798974E0,7.819075137E-2,-4.343251884E-1,2.724458873E-1,5.186317811E-1
2.546607229E0,3.213151097E-1,1.869247705E-1,3.042109013E-1,4.803421093E-1
2.548790205E0,4.404338300E-1,4.844161272E-1,3.280346394E-1,7.322893332E-1
2.550637037E0,6.548475623E-1,1.029307961E0,3.701843321E-1,1.274886916E0
2.552962705E0,8.423831463E-1,1.507615447E0,4.074471295E-1,1.774408878E0
2.554932320E0,9.230173826E-1,1.718363881E0,4.214970171E-1,1.995593960E0
2.557065628E0,1.064738154E0,2.097711325E0,4.428772926E-1,2.393783707E0
2.559003845E0,1.170417786E0,2.408030748E0,4.465425014E-1,2.714385765E0
2.561172628E0,1.252273798E0,2.663372517E0,4.355469346E-1,2.975137637E0
2.563006075E0,1.285260439E0,2.770273924E0,4.239404798E-1,3.083186264E0
2.565259782E0,1.329853654E0,2.933374882E0,3.909537494E-1,3.244386502E0
2.567061729E0,1.357342601E0,3.050050259E0,3.475823104E-1,3.356486106E0
2.569382820E0,1.376890302E0,3.125186682E0,2.926044464E-1,3.427569994E0
2.571177691E0,1.382998943E0,3.152064562E0,2.638937831E-1,3.452222039E0
2.573421859E0,1.395827055E0,3.191770792E0,2.009746730E-1,3.489430437E0
2.575283614E0,1.405600905E0,3.220481634E0,1.337794960E-1,3.516406236E0
2.577636551E0,1.414153099E0,3.228422880E0,6.047565863E-2,3.525081642E0
2.579520344E0,1.418429136E0,3.232088089E0,2.260201424E-2,3.529708980E0
2.581641282E0,1.425759435E0,3.218038082E0,-6.108652428E-2,3.520268545E0
2.583573652E0,1.424537778E0,3.190549135E0,-1.447750628E-1,3.497123315E0
2.585857513E0,1.423316002E0,3.138625622E0,-2.400700450E-1,3.454624851E0
2.587733191E0,1.419039965E0,3.107471466E0,-2.883284092E-1,3.428292083E0
2.589847667E0,1.407433510E0,3.031724215E0,-3.836233616E-1,3.364429771E0
2.591693306E0,1.387885809E0,2.943148851E0,-4.844161272E-1,3.289834519E0
2.594017090E0,1.375668526E0,2.893057823E0,-5.332853794E-1,3.247559200E0
2.595962191E0,1.347568750E0,2.779436827E0,-6.285803318E-1,3.152193497E0
2.598119743E0,1.311527729E0,2.653598547E0,-7.183775306E-1,3.045940989E0
2.600141051E0,1.260215044E0,2.518597364E0,-8.008443117E-1,2.927938909E0
2.602169243E0,1.234558702E0,2.445904493E0,-8.381071091E-1,2.865136559E0
2.603951152E0,1.170417786E0,2.294409752E0,-9.101892114E-1,2.731782990E0
2.606220974E0,1.098335743E0,2.136195660E0,-9.737191796E-1,2.591872362E0
2.608016575E0,1.054353356E0,2.055561543E0,-9.981538057E-1,2.516605904E0
2.610344397E0,9.627236128E-1,1.886351824E0,-1.043357849E0,2.360880251E0
2.612122729E0,8.588765264E-1,1.711033583E0,-1.078788042E0,2.197518703E0
2.614384090E0,7.391469479E-1,1.532050014E0,-1.099557400E0,2.025473261E0
2.616229306E0,6.756169796E-1,1.444085479E0,-1.107498646E0,1.941235283E0
2.618600166E0,5.442809463E-1,1.260825872E0,-1.114218235E0,1.768447315E0
2.620588589E0,4.062253833E-1,1.075733662E0,-1.108720422E0,1.597336203E0
2.622613282E0,2.602286041E-1,8.894197941E-1,-1.092227101E0,1.432391894E0
2.624489537E0,1.857030392E-1,7.984008789E-1,-1.079398870E0,1.355371353E0
2.626831205E0,4.031710699E-2,6.120869517E-1,-1.048855662E0,1.215061359E0
2.628753013E0,-1.038470939E-1,4.227187634E-1,-1.015868902E0,1.105199076E0
2.630822743E0,-1.722639948E-1,3.243694305E-1,-9.926560521E-1,1.058421678E0
2.632784575E0,-3.036000133E-1,1.233947799E-1,-9.492846131E-1,1.004261179E0
2.634994628E0,-4.184426963E-1,-8.796459436E-2,-9.034696817E-1,9.995446592E-1
2.636788191E0,-5.161811113E-1,-3.011565804E-1,-8.546004891E-1,1.042823198E0
2.639096589E0,-5.607742667E-1,-4.050036669E-1,-8.271115422E-1,1.078243596E0
2.640997998E0,-6.346889734E-1,-6.010913849E-1,-7.757988572E-1,1.168762086E0
2.643203320E0,-6.921103001E-1,-7.794640660E-1,-7.177666426E-1,1.265610466E0
2.645036383E0,-7.305948138E-1,-9.431759119E-1,-6.603453159E-1,1.363600205E0
2.647290051E0,-7.446447611E-1,-1.017701507E0,-6.304129362E-1,1.409834262E0
2.649153883E0,-7.519751191E-1,-1.156367898E0,-5.656611919E-1,1.490847370E0
2.651412089E0,-7.379252315E-1,-1.283427835E0,-5.027421117E-1,1.563480184E0
2.653183383E0,-7.183775306E-1,-1.345125318E0,-4.740314186E-1,1.596913956E0
2.655450051E0,-6.609562039E-1,-1.467909217E0,-4.166100919E-1,1.662884404E0
2.657274652E0,-5.925393105E-1,-1.576032281E0,-3.585779071E-1,1.721498969E0
2.659664089E0,-5.222898126E-1,-1.645671010E0,-2.950479090E-1,1.751591559E0
2.661474844E0,-4.948008358E-1,-1.660331726E0,-2.608394623E-1,1.752017846E0
2.663668666E0,-4.355469346E-1,-1.661553502E0,-1.936442852E-1,1.728571457E0
2.665585306E0,-3.799581826E-1,-1.621847272E0,-1.197295859E-1,1.670057474E0
2.667884974E0,-3.316998184E-1,-1.558317184E0,-4.948008433E-2,1.593996705E0
2.669634921E0,-3.017674387E-1,-1.518610954E0,-1.771509275E-2,1.548404547E0
2.671875397E0,-2.535090744E-1,-1.421483397E0,4.581489414E-2,1.444638676E0
2.673769498E0,-2.015855312E-1,-1.301142931E0,9.651670605E-2,1.320198897E0
2.676043974E0,-1.490511149E-1,-1.169196129E0,1.374446750E-1,1.186645213E0
2.677798652E0,-1.215621829E-1,-1.102000952E0,1.490511149E-1,1.118659777E0
2.680145089E0,-6.414084882E-2,-9.663888216E-1,1.692096740E-1,9.831852912E-1
2.682035883E0,-1.832595794E-3,-8.246681094E-1,1.814269722E-1,8.443912573E-1
2.684251897E0,2.932153270E-2,-7.556403279E-1,1.820378453E-1,7.778109247E-1
2.686078575E0,9.834930301E-2,-6.133087277E-1,1.789835095E-1,6.464172628E-1
2.688338205E0,1.667662114E-1,-4.880813360E-1,1.643227488E-1,5.413282974E-1
2.690132652E0,2.321287990E-1,-3.671300113E-1,1.453859210E-1,4.580450748E-1
2.692458974E0,2.681698501E-1,-3.152064681E-1,1.343903542E-1,4.351217684E-1
2.694216806E0,3.371976018E-1,-2.168571651E-1,1.069014147E-1,4.149182632E-1
2.696495974E0,4.043927789E-1,-1.221730486E-1,7.757988572E-2,4.295095017E-1
2.698368037E0,4.654793143E-1,-3.481931984E-2,5.070181563E-2,4.695253467E-1
2.700710281E0,4.941899776E-1,6.719517522E-3,3.481931984E-2,4.954606654E-1
2.702697474E0,5.516113043E-1,8.429940045E-2,6.108652451E-4,5.580159434E-1
2.704721089E0,6.035348773E-1,1.588249654E-1,-3.054326214E-2,6.248300638E-1
2.706587537E0,6.249151230E-1,1.973094791E-1,-4.581489414E-2,6.569238510E-1
2.708937205E0,6.737843752E-1,2.693915665E-1,-7.086037099E-2,7.290942275E-1
2.710762191E0,7.141014934E-1,3.347541690E-1,-9.651670605E-2,7.945544481E-1
2.712927820E0,7.550294399E-1,3.995058835E-1,-1.215621829E-1,8.628161857E-1
2.714965051E0,7.715228200E-1,4.300491214E-1,-1.307251602E-1,8.929046848E-1
2.717099974E0,8.051204085E-1,4.886921942E-1,-1.496619880E-1,9.536444010E-1
2.718877652E0,8.362745047E-1,5.442809463E-1,-1.667662114E-1,1.011636182E0
2.721201204E0,8.662069440E-1,5.974262357E-1,-1.753183305E-1,1.066756342E0
2.723097267E0,8.784242272E-1,6.267477274E-1,-1.753183305E-1,1.093242130E0
2.725307435E0,9.034696817E-1,6.798930168E-1,-1.765400618E-1,1.144411802E0
2.727112729E0,9.303477407E-1,7.360926270E-1,-1.618792862E-1,1.197323756E0
2.729392858E0,9.523389339E-1,7.880161405E-1,-1.404990107E-1,1.244049378E0
2.731187614E0,9.669997096E-1,8.130616546E-1,-1.282816976E-1,1.269887352E0
2.733514820E0,9.920451641E-1,8.588765264E-1,-9.834930301E-2,1.315862865E0
2.735340344E0,1.020755768E0,8.979719281E-1,-6.902777404E-2,1.361271742E0
2.737552743E0,1.034805775E0,9.150761366E-1,-5.619960278E-2,1.382514276E0
2.739403306E0,1.073290229E0,9.370672703E-1,-2.871066704E-2,1.425086414E0
2.741767127E0,1.114218235E0,9.431759119E-1,-6.719517522E-3,1.459831575E0
2.743614729E0,1.158200502E0,9.309586287E-1,1.038470957E-2,1.486008147E0
2.745771281E0,1.180191636E0,9.217956662E-1,1.649336144E-2,1.497608620E0
2.747735344E0,1.226617455E0,8.894197941E-1,2.871066704E-2,1.515414879E0
2.749987281E0,1.279762745E0,8.466592431E-1,4.031710699E-2,1.535008152E0
2.751756498E0,1.331075311E0,7.904596329E-1,5.009094998E-2,1.548901875E0
2.753978127E0,1.358564258E0,7.586946487E-1,5.497787148E-2,1.557028252E0
2.756012589E0,1.411098719E0,6.890559793E-1,6.719517708E-2,1.571786540E0
2.758108127E0,1.461189628E0,6.114761233E-1,8.124507964E-2,1.586057672E0
2.759827960E0,1.486235142E0,5.717698932E-1,8.979719132E-2,1.594954307E0
2.762174858E0,1.536326051E0,4.978551865E-1,1.056796908E-1,1.618433106E0
2.764069767E0,1.583973527E0,4.282165468E-1,1.215621829E-1,1.645332462E0
2.766280281E0,1.620014668E0,3.622430861E-1,1.392772794E-1,1.665852856E0
2.768119421E0,1.642616630E0,3.347541690E-1,1.478293836E-1,1.682885401E0
2.770365243E0,1.676825047E0,2.761110961E-1,1.673770845E-1,1.707628374E0
2.772351627E0,1.709811807E0,2.229658216E-1,1.869247705E-1,1.734390683E0
2.774485204E0,1.739744186E0,1.765400618E-1,2.101376504E-1,1.761259226E0
2.776262652E0,1.755015850E0,1.563815027E-1,2.168571651E-1,1.775264160E0
2.778523243E0,1.780672193E0,1.148426682E-1,2.400700450E-1,1.800448811E0
2.780489691E0,1.802052498E0,8.185594529E-2,2.565633953E-1,1.822064317E0
2.782738050E0,1.824654460E0,5.192354694E-2,2.718350291E-1,1.845522754E0
2.784637614E0,1.832595706E0,3.604105115E-2,2.803871334E-1,1.854271534E0
2.786751589E0,1.850921750E0,7.941247895E-3,2.968805134E-1,1.874596604E0
2.788631883E0,1.866193295E0,-1.527163107E-2,3.115412891E-1,1.892080498E0
2.790968897E0,1.873523712E0,-2.260201424E-2,3.188716471E-1,1.900600189E0
2.792693998E0,1.888795376E0,-4.459316283E-2,3.353650272E-1,1.918855446E0
2.794960012E0,1.900401831E0,-5.986479297E-2,3.463605940E-1,1.932634620E0
2.796811306E0,1.910786510E0,-7.635815442E-2,3.549126983E-1,1.944967526E0
2.799131973E0,1.918727756E0,-8.307767659E-2,3.604104817E-1,1.954050617E0
2.800957729E0,1.924836397E0,-9.346238524E-2,3.683517575E-1,1.961992199E0
2.803233743E0,1.938886285E0,-1.081231460E-1,3.732386529E-1,1.977442220E0
2.805205396E0,1.941329718E0,-1.154535338E-1,3.762930036E-1,1.980829881E0
2.807340012E0,1.952936172E0,-1.282816976E-1,3.817907870E-1,1.994036131E0
2.809131229E0,1.959655762E0,-1.411098689E-1,3.817907870E-1,2.001481178E0
2.811426281E0,1.964542627E0,-1.557706445E-1,3.824016452E-1,2.007466873E0
2.813215806E0,1.968818665E0,-1.612684280E-1,3.836233616E-1,2.012317401E0
2.815548973E0,1.976149082E0,-1.685988009E-1,3.830125034E-1,2.019972606E0
2.817315114E0,1.982868552E0,-1.795943826E-1,3.817907870E-1,2.027260724E0
2.819587781E0,1.991420746E0,-1.918116808E-1,3.799581826E-1,2.036397930E0
2.821446190E0,1.993253350E0,-1.985312104E-1,3.781255782E-1,2.038492706E0
2.823802858E0,1.999361992E0,-2.095267773E-1,3.732386529E-1,2.044665483E0
2.825644344E0,2.007303238E0,-2.223549485E-1,3.671300113E-1,2.052679336E0
2.827807281E0,2.015855312E0,-2.309070677E-1,3.646865487E-1,2.061549658E0
2.829676537E0,2.019520521E0,-2.388483137E-1,3.628539443E-1,2.065714074E0
2.832025743E0,2.024407387E0,-2.498438805E-1,3.591887653E-1,2.071150357E0
2.833889921E0,2.032348633E0,-2.620611787E-1,3.543018401E-1,2.079578520E0
2.836016050E0,2.036624670E0,-2.700024247E-1,3.512475193E-1,2.084254345E0
2.837835652E0,2.043955088E0,-2.846632004E-1,3.463605940E-1,2.092546582E0
2.840185627E0,2.047620296E0,-3.005456924E-1,3.378084898E-1,2.096948060E0
2.841918114E0,2.053117990E0,-3.176499307E-1,3.298672438E-1,2.103570146E0
2.844287319E0,2.057394028E0,-3.274237812E-1,3.268128932E-1,2.108763426E0
2.846255460E0,2.064724445E0,-3.488040566E-1,3.164281845E-1,2.117753078E0
2.848399012E0,2.073276758E0,-3.689626157E-1,3.042109013E-1,2.127711024E0
2.850272460E0,2.077552795E0,-3.872885704E-1,2.919935882E-1,2.133419394E0
2.852484742E0,2.082439661E0,-3.995058835E-1,2.834414840E-1,2.139275337E0
2.854472204E0,2.091602564E0,-4.202753007E-1,2.669481039E-1,2.150045093E0
2.856607050E0,2.101376534E0,-4.465425014E-1,2.449569702E-1,2.162218180E0
2.858390921E0,2.104430676E0,-4.593706727E-1,2.351831198E-1,2.166785865E0
2.860645435E0,2.113593817E0,-4.807509482E-1,2.138028294E-1,2.178098241E0
2.862487998E0,2.121535063E0,-5.051855445E-1,1.875356287E-1,2.188902252E0
2.864859935E0,2.130697966E0,-5.241223574E-1,1.661553532E-1,2.200496687E0
2.866846781E0,2.134974003E0,-5.345070958E-1,1.533271819E-1,2.206200592E0
2.868870665E0,2.146580458E0,-5.564982295E-1,1.288925707E-1,2.221285942E0
2.870784652E0,2.155132532E0,-5.772676468E-1,1.075122803E-1,2.233694934E0
2.873085858E0,2.167349815E0,-5.962044597E-1,8.552113175E-2,2.249484128E0
2.875008127E0,2.179567099E0,-6.065891981E-1,7.574728876E-2,2.263669774E0
2.877076319E0,2.233323336E0,-6.243042946E-1,5.681046844E-2,2.319637127E0
2.879112665E0,2.323120594E0,-6.304129362E-1,5.436700583E-2,2.407751137E0
2.881247281E0,2.448958874E0,-6.346889734E-1,5.986479297E-2,2.530575715E0
2.883103690E0,2.526538610E0,-6.377432942E-1,6.536258012E-2,2.606604329E0
2.885347704E0,2.707354784E0,-6.371324658E-1,8.979719132E-2,2.782763238E0
2.887233037E0,2.926655293E0,-6.383541822E-1,1.215621829E-1,2.997930057E0
2.889452742E0,3.165503740E0,-6.377432942E-1,1.661553532E-1,3.233378734E0
2.891269883E0,3.290731192E0,-6.395758986E-1,1.887573600E-1,3.357617972E0
2.893538088E0,3.539353132E0,-6.462954283E-1,2.382374406E-1,3.605755878E0
2.895375229E0,3.775758028E0,-6.530149579E-1,2.846632004E-1,3.842370409E0
2.897659511E0,3.883881330E0,-6.597344875E-1,3.066543639E-1,3.951432738E0
2.899473960E0,4.075081825E0,-6.817256212E-1,3.402519524E-1,4.145698143E0
2.901697204E0,4.238183022E0,-7.092145681E-1,3.555235863E-1,4.311795177E0
2.903681690E0,4.355469227E0,-7.507534027E-1,3.597996235E-1,4.434320537E0
2.905911281E0,4.400673389E0,-7.733554244E-1,3.573561609E-1,4.482377530E0
2.907714190E0,4.472144604E0,-8.271115422E-1,3.408628106E-1,4.560743176E0
2.909914896E0,4.511850834E0,-8.863654733E-1,3.078760803E-1,4.608386852E0
2.911949011E0,4.521013737E0,-9.217956662E-1,2.889392674E-1,4.623068068E0
2.914129935E0,4.527122498E0,-9.950994849E-1,2.492330223E-1,4.641893815E0
2.915905190E0,4.511240005E0,-1.070846796E0,1.991420686E-1,4.640868110E0
2.918119281E0,4.485583305E0,-1.155146122E0,1.508837193E-1,4.634391659E0
2.919992037E0,4.470311642E0,-1.202182770E0,1.270599663E-1,4.630882618E0
2.922287165E0,4.436103344E0,-1.299310327E0,7.880161703E-2,4.623140696E0
2.924058767E0,4.404949188E0,-1.406211853E0,3.665191308E-2,4.624105588E0
2.926388934E0,4.369519234E0,-1.524719596E0,2.443460980E-3,4.627901701E0
2.928306844E0,4.359134197E0,-1.586417079E0,-1.466076635E-2,4.638856005E0
2.930495934E0,4.329202175E0,-1.716531396E0,-4.459316283E-2,4.657301800E0
2.932312960E0,4.310875893E0,-1.858862996E0,-6.841690838E-2,4.695072254E0
2.934582050E0,4.287662983E0,-2.023185730E0,-8.552113175E-2,4.741797994E0
2.936380037E0,4.269337177E0,-2.110539436E0,-9.040805697E-2,4.763380130E0
2.938703857E0,4.208861351E0,-2.327396631E0,-1.026253626E-1,4.810594653E0
2.940539075E0,4.100738525E0,-2.622444391E0,-1.111774743E-1,4.868842929E0
2.942743050E0,4.006054401E0,-2.808758497E0,-1.154535338E-1,4.893968296E0
2.944572229E0,3.672521830E0,-3.261409521E0,-1.270599663E-1,4.913283310E0
2.946957281E0,3.132516861E0,-3.779423237E0,-1.307251602E-1,4.910579493E0
2.948947665E0,2.510045290E0,-4.239404678E0,-1.221730486E-1,4.928265987E0
2.950971050E0,2.173458576E0,-4.438546658E0,-1.111774743E-1,4.943377291E0
2.952891921E0,1.494176388E0,-4.745201111E0,-7.513642311E-2,4.975453963E0
2.955187281E0,8.570439219E-1,-4.909523964E0,-2.443460934E-2,4.983828537E0
2.957080844E0,3.023782969E-1,-4.939456463E0,3.970624134E-2,4.948862432E0
2.959177511E0,6.291911751E-2,-4.910745621E0,7.635815442E-2,4.911742250E0
2.961047690E0,-3.561344445E-1,-4.791626930E0,1.459967941E-1,4.807060999E0
2.963348665E0,-6.908885837E-1,-4.605313301E0,2.113593817E-1,4.661642460E0
2.965125037E0,-8.393288255E-1,-4.497189999E0,2.443460971E-1,4.581363965E0
2.967449857E0,-1.089783549E0,-4.255287170E0,3.060434759E-1,4.403266934E0
2.969337113E0,-1.293812633E0,-3.999945641E0,3.555235863E-1,4.218994344E0
2.971556050E0,-1.465465665E0,-3.734219313E0,3.933972120E-1,4.030725103E0
2.973378460E0,-1.541823864E0,-3.600439787E0,4.105014503E-1,3.938133940E0
2.975642665E0,-1.668272972E0,-3.327993870E0,4.379903674E-1,3.748401455E0
2.977420498E0,-1.773341775E0,-3.056158781E0,4.557054639E-1,3.562655613E0
2.979764973E0,-1.862528086E0,-2.781880379E0,4.660901725E-1,3.380104933E0
2.981518921E0,-1.897347450E0,-2.643824816E0,4.679227769E-1,3.287657027E0
2.983802742E0,-1.954768777E0,-2.360994101E0,4.703662395E-1,3.101073768E0
2.985657152E0,-1.993864179E0,-2.083661318E0,4.618141353E-1,2.920686759E0
2.988016780E0,-2.018298864E0,-1.810604572E0,4.483750761E-1,2.748246610E0
2.989847152E0,-2.029294252E0,-1.671327353E0,4.404338300E-1,2.665586660E0
2.992029396E0,-2.037235498E0,-1.412931323E0,4.233296216E-1,2.515136451E0
2.993927460E0,-2.039679050E0,-1.167974353E0,4.080579877E-1,2.385574572E0
2.996231473E0,-2.028683424E0,-9.321803451E-1,3.909537494E-1,2.266574831E0
2.998152396E0,-2.023185730E0,-8.191702962E-1,3.824016452E-1,2.215976419E0
3.000220703E0,-2.009135723E0,-6.004805565E-1,3.634648323E-1,2.128217549E0
3.002254742E0,-1.993253350E0,-3.915646076E-1,3.445279896E-1,2.060359506E0
3.004349703E0,-1.982868552E0,-2.932153046E-1,3.371976018E-1,2.032595664E0
3.006103037E0,-1.968207836E0,-9.651670605E-2,3.219259977E-1,1.996695748E0
3.008416203E0,-1.954768777E0,8.246681094E-2,3.066543639E-1,1.980393558E0
3.010321306E0,-1.940108061E0,2.522873580E-1,2.919935882E-1,1.978112346E0
3.012522011E0,-1.938275456E0,3.316998184E-1,2.846632004E-1,1.986949836E0
3.014335306E0,-1.921782017E0,4.899139404E-1,2.755002379E-1,2.002289232E0
3.016606126E0,-1.918116927E0,6.389650702E-1,2.663372457E-1,2.039211719E0
3.018403460E0,-1.915062547E0,7.067710757E-1,2.626720667E-1,2.058151240E0
3.020726896E0,-1.905899525E0,8.436049223E-1,2.559525371E-1,2.099912847E0
3.022507652E0,-1.899790883E0,9.651671052E-1,2.522873580E-1,2.145787000E0
3.024765126E0,-1.891238809E0,1.079398870E0,2.467895597E-1,2.191527148E0
3.026629767E0,-1.886351824E0,1.133154988E0,2.467895597E-1,2.214332522E0
3.028980049E0,-1.874745488E0,1.236391306E0,2.516764700E-1,2.259795378E0
3.030915883E0,-1.864360690E0,1.331686258E0,2.559525371E-1,2.305372155E0
3.032988357E0,-1.849089146E0,1.419039965E0,2.651155293E-1,2.345866862E0
3.034936652E0,-1.844812989E0,1.461800575E0,2.712241709E-1,2.369337130E0
3.037205011E0,-1.824654460E0,1.540602207E0,2.828305960E-1,2.404747846E0
3.039059229E0,-1.804495931E0,1.610851645E0,3.029891551E-1,2.437796344E0
3.041196088E0,-1.795332909E0,1.645671010E0,3.121521473E-1,2.455380274E0
3.043151113E0,-1.770898342E0,1.707979202E0,3.268128932E-1,2.481950959E0
3.045367972E0,-1.745242000E0,1.768454909E0,3.475823104E-1,2.508807658E0
3.047151844E0,-1.716531396E0,1.819767594E0,3.689626157E-1,2.528669125E0
3.049469742E0,-1.698205352E0,1.842980504E0,3.787364662E-1,2.534545298E0
3.051314113E0,-1.665829539E0,1.888184428E0,3.970624208E-1,2.549095341E0
3.053576742E0,-1.623068929E0,1.926669002E0,4.221078753E-1,2.554325987E0
3.055545434E0,-1.577254057E0,1.956601381E0,4.434881806E-1,2.551999430E0
3.057661396E0,-1.550986886E0,1.970651269E0,4.563163519E-1,2.548970647E0
3.059494383E0,-1.486845970E0,1.991420746E0,4.746423066E-1,2.530168541E0
3.061782819E0,-1.417818189E0,1.996918440E0,4.868595898E-1,2.496982966E0
3.063547921E0,-1.333518863E0,1.994475007E0,4.905247986E-1,2.448840070E0
3.065820549E0,-1.285260439E0,1.986533761E0,4.844161272E-1,2.415133488E0
3.067662229E0,-1.182024240E0,1.959044814E0,4.660901725E-1,2.335011336E0
3.070034549E0,-1.059240341E0,1.921171188E0,4.404338300E-1,2.237603806E0
3.071849806E0,-9.932668805E-1,1.896736622E0,4.294382632E-1,2.183713839E0
3.074035357E0,-8.484918475E-1,1.839315295E0,4.135557711E-1,2.067376972E0
3.075930960E0,-6.988298297E-1,1.773952723E0,4.111123085E-1,1.950457568E0
3.078252395E0,-5.485569835E-1,1.697594523E0,4.233296216E-1,1.833562079E0
3.080042075E0,-4.776966274E-1,1.651168704E0,4.337143302E-1,1.772754996E0
3.082242626E0,-3.524692357E-1,1.540602207E0,4.648684561E-1,1.647359221E0
3.084084460E0,-2.455678284E-1,1.410487890E0,5.015203953E-1,1.517004401E0
3.086412088E0,-1.765400618E-1,1.246775985E0,5.369505286E-1,1.368916586E0
3.088249306E0,-1.631010175E-1,1.132544160E0,5.516113043E-1,1.270249285E0
3.090513857E0,-2.028072625E-1,8.258898258E-1,5.595525503E-1,1.017999925E0
3.092536318E0,-3.903428912E-1,4.190535545E-1,5.424483418E-1,7.888115477E-1
3.094563203E0,-5.900958180E-1,1.740965992E-1,5.167919993E-1,8.034903054E-1
3.096360729E0,-1.115439892E0,-3.274237812E-1,4.276056588E-1,1.238652124E0
3.098614395E0,-1.714087844E0,-7.715228200E-1,3.268128932E-1,1.907918045E0
3.100601241E0,-2.354885578E0,-1.132544160E0,2.370157093E-1,2.623798545E0
3.102735857E0,-2.667037725E0,-1.273653984E0,2.034181207E-1,2.962543440E0
3.104499344E0,-3.247970581E0,-1.480126500E0,1.612684280E-1,3.572967234E0
3.106774511E0,-3.745214701E0,-1.584584475E0,1.521054506E-1,4.069481193E0
3.108649729E0,-3.963904619E0,-1.608408213E0,1.600466967E-1,4.280786348E0
3.110989318E0,-4.338365078E0,-1.616349459E0,1.905899495E-1,4.633607844E0
3.112848267E0,-4.629137039E0,-1.582751870E0,2.376265824E-1,4.898007718E0
3.114998434E0,-4.847826481E0,-1.516167521E0,3.029891551E-1,5.088417040E0
3.116919190E0,-4.936401844E0,-1.478293896E0,3.365867436E-1,5.163981666E0
3.119216434E0,-5.068959713E0,-1.384831548E0,4.172209501E-1,5.271260220E0
3.121036498E0,-5.153259277E0,-1.279762745E0,4.996877611E-1,5.333250577E0
3.123207280E0,-5.188689232E0,-1.153313637E0,5.681046844E-1,5.345593627E0
3.125111536E0,-5.188689232E0,-1.082453251E0,5.986479521E-1,5.334096020E0
3.127378588E0,-5.169752598E0,-9.492846131E-1,6.450737119E-1,5.295621143E0
3.129143459E0,-5.124548435E0,-8.210029006E-1,6.719517708E-1,5.233217138E0
3.131480049E0,-5.057964325E0,-6.982190013E-1,6.835582256E-1,5.151481800E0
3.133402267E0,-5.020701408E0,-6.462954283E-1,6.780604124E-1,5.107338479E0
3.135586011E0,-4.934569359E0,-5.522221923E-1,6.621779203E-1,5.009331662E0
3.137408844E0,-4.831943989E0,-4.660901725E-1,6.383541822E-1,4.896163684E0
3.139671780E0,-4.731762409E0,-4.037819207E-1,6.084218025E-1,4.787775311E0
3.141464229E0,-4.678617001E0,-3.787364662E-1,5.894849896E-1,4.730791784E0
3.143793126E0,-4.555222034E0,-3.304781020E-1,5.424483418E-1,4.599294920E0
3.145569536E0,-4.448931694E0,-3.066543639E-1,4.856378734E-1,4.485852679E0
3.147830549E0,-4.392121315E0,-2.999348342E-1,4.544837475E-1,4.425748075E0
3.149725190E0,-4.283998013E0,-2.913827300E-1,3.848451078E-1,4.311107587E0
3.152043934E0,-4.173431396E0,-2.987131178E-1,3.164281845E-1,4.196055999E0
3.153975357E0,-4.063475609E0,-3.127630055E-1,2.412917763E-1,4.082631069E0
3.156043280E0,-4.000556469E0,-3.237585723E-1,2.070833147E-1,4.018974393E0
3.157940652E0,-3.889379025E0,-3.744603992E-1,1.331686229E-1,3.909632165E0
3.160260164E0,-3.775758028E0,-4.624249935E-1,5.742133409E-2,3.804403077E0
3.162043575E0,-3.653584957E0,-5.717698932E-1,1.893682219E-2,3.698102548E0
3.164250510E0,-3.597385406E0,-6.371324658E-1,-5.253441259E-2,3.653748679E0
3.166193190E0,-3.470936298E0,-7.788531780E-1,-1.178969890E-1,3.559200860E0
3.168419395E0,-3.327993870E0,-9.437867999E-1,-1.765400618E-1,3.463732541E0
3.170204806E0,-3.263853073E0,-1.031751394E0,-2.034181207E-1,3.429085411E0
3.172520010E0,-3.112358332E0,-1.218065262E0,-2.419026345E-1,3.350966167E0
3.174491626E0,-2.970026731E0,-1.386664152E0,-2.638937831E-1,3.288394165E0
3.176625857E0,-2.831360340E0,-1.524719596E0,-2.706133127E-1,3.227166371E0
3.178452959E0,-2.773939133E0,-1.588860512E0,-2.663372457E-1,3.207826611E0
3.180710433E0,-2.646268129E0,-1.706146598E0,-2.474004179E-1,3.158303056E0
3.182627036E0,-2.522262573E0,-1.808771968E0,-2.168571651E-1,3.111348831E0
3.184831741E0,-2.392148256E0,-1.905288696E0,-1.783726513E-1,3.063382950E0
3.186800510E0,-2.324342251E0,-1.943773150E0,-1.539380401E-1,3.033894837E0
3.188869049E0,-2.188119411E0,-2.000583649E0,-9.773843735E-2,2.966437981E0
3.190773229E0,-2.040900707E0,-2.044565916E0,-3.604105115E-2,2.889087129E0
3.193082780E0,-1.899790883E0,-2.076941729E0,2.809980139E-2,2.814903540E0
3.195061075E0,-1.828930497E0,-2.087937355E0,6.047565863E-2,2.776351287E0
3.197090433E0,-1.698816299E0,-2.094656944E0,1.301143020E-1,2.700091529E0
3.198968652E0,-1.571145415E0,-2.072665691E0,2.113593817E-1,2.609427863E0
3.201307087E0,-1.503339410E0,-2.043344259E0,2.547308207E-1,2.549543672E0
3.203042729E0,-1.369559884E0,-1.963931799E0,3.481931984E-1,2.419495999E0
3.205297549E0,-1.239445567E0,-1.843591332E0,4.440990388E-1,2.265453215E0
3.207335087E0,-1.123381138E0,-1.687820673E0,5.430592299E-1,2.098960965E0
3.209469780E0,-1.066570759E0,-1.598023534E0,5.925393105E-1,2.010560925E0
3.211242498E0,-9.755517840E-1,-1.403157473E0,6.860016584E-1,1.841507657E0
3.213571433E0,-8.845328689E-1,-1.191187263E0,7.660250068E-1,1.669766391E0
3.215487883E0,-8.448266387E-1,-1.080009699E0,8.020660877E-1,1.588541157E0
3.217677203E0,-7.678576112E-1,-8.429940343E-1,8.582656980E-1,1.427187535E0
3.219499767E0,-6.927211881E-1,-5.925393105E-1,9.004153609E-1,1.281293605E0
3.221762818E0,-6.365215778E-1,-3.274237812E-1,9.358455539E-1,1.178207517E0
3.223564459E0,-6.175847650E-1,-1.973094791E-1,9.474520087E-1,1.148044982E0
3.225883549E0,-5.949827433E-1,5.436700583E-2,9.645562172E-1,1.134605188E0
3.227669690E0,-6.059783101E-1,2.871066630E-1,9.822713137E-1,1.189326230E0
3.229921087E0,-6.536257863E-1,4.929682612E-1,9.969320893E-1,1.290006963E0
3.231762113E0,-6.860016584E-1,5.845980644E-1,1.006095052E0,1.350770308E0
3.234135087E0,-7.739662528E-1,7.367035151E-1,1.023810148E0,1.479845617E0
3.236024652E0,-8.637634516E-1,8.643743396E-1,1.037249207E0,1.602846286E0
3.238135741E0,-9.492846131E-1,9.602801800E-1,1.047633886E0,1.709039514E0
3.240024267E0,-9.889908433E-1,1.002429843E0,1.053742528E0,1.758789866E0
3.242353472E0,-1.071457624E0,1.059851170E0,1.061683774E0,1.843496238E0
3.244114459E0,-1.154535294E0,1.084285855E0,1.067792416E0,1.910185384E0
3.246343664E0,-1.194241524E0,1.084896684E0,1.075733662E0,1.939179348E0
3.248378587E0,-1.268767118E0,1.068403363E0,1.087340117E0,1.983321526E0
3.250473202E0,-1.335351467E0,1.037249207E0,1.099557400E0,2.016947182E0
3.252306113E0,-1.393383622E0,1.004262447E0,1.123381138E0,2.052327012E0
3.254539818E0,-1.420872569E0,9.908234477E-1,1.136209369E0,2.071613306E0
3.256420921E0,-1.467909217E0,9.786061049E-1,1.158811331E0,2.110751306E0
3.258645433E0,-1.501506805E0,9.841039181E-1,1.186300278E0,2.151811227E0
3.260461267E0,-1.522887111E0,1.014036298E0,1.220508814E0,2.199340021E0
3.262730395E0,-1.529606581E0,1.028697014E0,1.241889000E0,2.222656547E0
3.264522075E0,-1.533271790E0,1.062905550E0,1.283427835E0,2.264481750E0
3.266852010E0,-1.527773976E0,1.100779176E0,1.337184072E0,2.309517127E0
3.268614613E0,-1.518000126E0,1.127046347E0,1.364062071E0,2.331356511E0
3.270889818E0,-1.505172014E0,1.180191636E0,1.417818189E0,2.380882926E0
3.272714536E0,-1.482569933E0,1.233947754E0,1.474017859E0,2.427626271E0
3.275103933E0,-1.463633180E0,1.283427835E0,1.527163148E0,2.474194085E0
3.276955882E0,-1.455080986E0,1.304808140E0,1.551597714E0,2.495443933E0
3.279112356E0,-1.439198494E0,1.330464482E0,1.594358325E0,2.526540424E0
3.280980229E0,-1.424537778E0,1.348179579E0,1.624290705E0,2.546608794E0
3.283328818E0,-1.410487890E0,1.352455616E0,1.642005801E0,2.552409711E0
3.285177344E0,-1.401935697E0,1.352455616E0,1.648114443E0,2.551634987E0
3.287319318E0,-1.389718413E0,1.348179579E0,1.648725271E0,2.543069103E0
3.289355779E0,-1.376890302E0,1.338405728E0,1.648114443E0,2.530501534E0
3.291490356E0,-1.358564258E0,1.325577617E0,1.640173197E0,2.508589439E0
3.293345998E0,-1.351844788E0,1.321912408E0,1.629788518E0,2.496226624E0
3.295591625E0,-1.339016676E0,1.319468975E0,1.611462474E0,2.476040254E0
3.297482767E0,-1.329853654E0,1.318858027E0,1.579697490E0,2.450171708E0
3.299697433E0,-1.323745012E0,1.323134065E0,1.561982393E0,2.437780467E0
3.301519690E0,-1.317636371E0,1.337184072E0,1.525941372E0,2.419240359E0
3.303782818E0,-1.306029916E0,1.353066564E0,1.480737329E0,2.393550982E0
3.305769587E0,-1.302364707E0,1.371392488E0,1.428813815E0,2.370312238E0
3.307903164E0,-1.295645237E0,1.383609772E0,1.402546644E0,2.358009684E0
3.309677613E0,-1.282206178E0,1.398881435E0,1.341460109E0,2.323884071E0
3.311941702E0,-1.271821499E0,1.414763927E0,1.277319193E0,2.291425586E0
3.313976395E0,-1.252273798E0,1.425759435E0,1.244332552E0,2.269216413E0
3.316156510E0,-1.243110776E0,1.427592039E0,1.178969979E0,2.230092743E0
3.317991882E0,-1.226006508E0,1.433089852E0,1.108109593E0,2.187406079E0
3.320157087E0,-1.202793717E0,1.425759435E0,1.037249207E0,2.134335637E0
3.322191933E0,-1.189965487E0,1.420261741E0,1.003651619E0,2.107244135E0
3.324373625E0,-1.161865711E0,1.400103092E0,9.321803451E-1,2.044304477E0
3.326114036E0,-1.124602914E0,1.379944563E0,8.674286604E-1,1.980255335E0
3.328364548E0,-1.088561893E0,1.350012183E0,8.032878041E-1,1.911222432E0
