"Time (s)","Linear Acceleration x (m/s^2)","Linear Acceleration y (m/s^2)","Linear Acceleration z (m/s^2)","Absolute acceleration (m/s^2)"
2.278273700E-2,2.768516541E-2,3.664731979E-2,-5.846500397E-3,4.629984880E-2
3.099219800E-2,2.043471336E-1,2.007246017E-2,9.663152695E-2,2.269323835E-1
3.920162100E-2,3.696265221E-1,-3.716135025E-2,1.640216112E-1,4.060884395E-1
4.741069800E-2,3.935666084E-1,-7.128000259E-2,1.748209000E-1,4.365064273E-1
5.562716000E-2,2.228627205E-1,-1.343016624E-1,2.573472261E-1,3.659676537E-1
6.383581400E-2,1.335401535E-1,-1.910967827E-1,4.696359634E-1,5.243175480E-1
7.209935200E-2,1.082806587E-1,-2.136545181E-1,6.181534529E-1,6.629378896E-1
8.031669800E-2,-7.044887543E-2,-1.489253044E-1,7.599550486E-1,7.776075271E-1
8.852492900E-2,-6.929922104E-2,-2.011442184E-1,9.323521852E-1,9.563168805E-1
9.674031300E-2,-5.374908447E-3,-2.849636078E-1,9.498127699E-1,9.916538939E-1
1.049482360E-1,-2.915668488E-2,-3.544983864E-1,8.753672838E-1,9.448741185E-1
1.132120060E-1,-9.991931915E-2,-3.804841042E-1,8.364048004E-1,9.242970378E-1
1.214260830E-1,-1.225590706E-1,-3.872141838E-1,8.498126864E-1,9.418795846E-1
1.296328130E-1,-1.142764091E-1,-3.937406540E-1,7.902845740E-1,8.903036045E-1
1.378529290E-1,-5.986309052E-2,-3.878464699E-1,5.578073263E-1,6.820245502E-1
1.460608130E-1,-9.287834167E-3,-3.829054832E-1,3.491331935E-1,5.182633112E-1
1.542920050E-1,-9.768009186E-3,-3.507795334E-1,7.330605388E-2,3.584905474E-1
1.625146980E-1,4.357862473E-2,-3.058543205E-1,-8.783186972E-2,3.211859263E-1
1.707233130E-1,8.296680450E-2,-2.224497795E-1,-1.131201833E-1,2.629896784E-1
1.789451980E-1,-3.950548172E-2,-8.822965622E-2,9.871683270E-2,1.381671755E-1
1.871543130E-1,-1.980390549E-1,3.787088394E-2,1.158672869E-1,2.325487030E-1
1.953631980E-1,-2.225341797E-1,2.528538704E-1,-1.147919223E-1,3.558563282E-1
2.035870820E-1,-3.456826210E-1,3.497409821E-1,-2.234638929E-1,5.401401119E-1
2.117967740E-1,-3.158888817E-1,3.082590103E-1,1.399360597E-2,4.415939583E-1
2.200178510E-1,-4.033470154E-2,2.815742493E-1,2.481339127E-2,2.855287208E-1
2.282268510E-1,-1.516108513E-1,1.974139214E-1,-2.296960652E-1,3.387010318E-1
2.364566210E-1,-2.431201935E-2,6.685733795E-2,-4.572752714E-1,4.627760277E-1
2.446786590E-1,1.771783829E-2,-1.268444061E-1,-7.064148784E-1,7.179313376E-1
2.528869280E-1,-1.497778893E-1,-2.389397621E-1,-7.927656174E-1,8.414291118E-1
2.610974670E-1,-2.224144936E-1,-2.227721214E-1,-6.717588902E-1,7.418595767E-1
2.693061970E-1,-1.126108170E-1,-1.767950058E-1,-5.714092255E-1,6.086428946E-1
2.775386970E-1,-1.000585556E-1,1.140689850E-2,-4.169900417E-1,4.289784689E-1
2.857606590E-1,-2.526187897E-2,1.439108849E-1,-2.848980427E-1,3.201802618E-1
2.939689660E-1,4.314041138E-2,1.105499268E-1,-2.315152287E-1,2.601570344E-1
3.021880430E-1,3.013057709E-1,2.154121399E-1,-4.748548865E-1,6.022248092E-1
3.103964660E-1,6.187953949E-1,2.478070259E-1,-4.111837745E-1,7.831910107E-1
3.186382740E-1,9.797506332E-1,2.955284119E-1,-2.489487529E-1,1.053196956E0
3.268630820E-1,1.241056919E0,3.532605171E-1,-3.058701754E-2,1.290717179E0
3.350732740E-1,1.467838287E0,3.196043968E-1,2.178361416E-1,1.517942289E0
3.432951200E-1,1.778674603E0,3.511567116E-1,1.523150206E-1,1.819393922E0
3.515061590E-1,2.076869011E0,3.247785568E-1,8.750087023E-2,2.103930227E0
3.597475430E-1,2.300730705E0,4.578061104E-1,1.509140730E-1,2.350685702E0
3.679575820E-1,2.409769058E0,8.893280029E-1,4.875066280E-1,2.614489228E0
3.761686970E-1,2.345520973E0,1.167942524E0,6.313197613E-1,2.695203706E0
3.843791200E-1,2.169302464E0,1.217917442E0,5.769506097E-1,2.553833996E0
3.925895810E-1,2.008319855E0,1.345317841E0,7.626656294E-1,2.534736198E0
4.008190050E-1,1.929826260E0,1.465986252E0,8.777288795E-1,2.577547879E0
4.090282350E-1,1.717935562E0,1.518515587E0,1.006112218E0,2.503887773E0
4.172385430E-1,1.873395920E0,1.334953308E0,9.259926081E-1,2.479752995E0
4.254481970E-1,1.426732540E0,1.365997791E0,6.462098360E-1,2.078245139E0
4.336560810E-1,1.095818043E0,1.462224007E0,5.688412189E-1,1.913765022E0
4.418871580E-1,5.318484306E-1,1.466143608E0,8.580388427E-1,1.780075978E0
4.501078120E-1,-2.397322655E-1,1.367805958E0,1.819342136E0,2.288748677E0
4.583158120E-1,-7.592797279E-1,1.569515228E0,1.921313047E0,2.594480214E0
4.665238500E-1,-1.408492088E0,1.732759476E0,1.504284620E0,2.692429680E0
4.747324660E-1,-2.108759880E0,1.807809353E0,1.073715448E0,2.977903248E0
4.829608890E-1,-2.593454599E0,1.866144657E0,1.083788395E0,3.373884990E0
4.911758120E-1,-2.971459150E0,1.916856766E0,9.072421789E-1,3.650616073E0
4.993846200E-1,-2.895274639E0,1.984673023E0,5.722210407E-1,3.556540336E0
5.075973890E-1,-2.877382755E0,1.845997334E0,2.730517387E-1,3.429518177E0
5.158058890E-1,-2.321096897E0,1.818768024E0,-1.240861416E-1,2.951407343E0
5.240146960E-1,-1.704470634E0,1.825053692E0,8.409059048E-2,2.498622090E0
5.322355810E-1,-1.490153790E0,1.904404640E0,9.084049463E-1,2.583121154E0
5.404441960E-1,-1.239696026E0,2.107569218E0,1.705011845E0,2.980899132E0
5.486560810E-1,-1.056839943E0,2.314181805E0,2.091732025E0,3.293583300E0
5.568624270E-1,-8.237829208E-1,2.389069557E0,2.333097219E0,3.439420632E0
5.651205810E-1,-6.404280663E-1,2.407595158E0,1.953261375E0,3.165737284E0
5.733277350E-1,-4.918055534E-1,2.372684002E0,1.374499083E0,2.785812234E0
5.815352350E-1,-4.717469215E-1,2.108876705E0,1.020988464E0,2.390046769E0
5.897493500E-1,-2.016701698E-1,1.896482468E0,8.672823906E-1,2.095112253E0
5.979586960E-1,-2.558970451E-1,1.813225269E0,6.932501793E-1,1.958025788E0
6.062199650E-1,-4.028501511E-1,1.841432095E0,6.688153744E-1,2.000118599E0
6.144415810E-1,-5.380330086E-1,1.776563168E0,5.041565895E-1,1.923494235E0
6.226492340E-1,-8.644890785E-1,1.638105392E0,8.952331543E-2,1.854385361E0
6.309053110E-1,-9.888916016E-1,1.512136459E0,-1.427631378E-1,1.812414021E0
6.391132730E-1,-1.551370144E0,1.592312336E0,-2.160511017E-1,2.233581424E0
6.473218500E-1,-2.022994518E0,1.550767899E0,-1.374800205E-1,2.552702226E0
6.555428110E-1,-2.589040279E0,1.545109272E0,-7.974314690E-2,3.016098672E0
6.637506570E-1,-3.057702780E0,1.524218559E0,-9.736394882E-2,3.417933329E0
6.719709650E-1,-3.277850866E0,1.414566040E0,-3.582897186E-1,3.587990371E0
6.801787340E-1,-3.561608791E0,1.221145153E0,-5.055997372E-1,3.798931924E0
6.883878880E-1,-3.575362682E0,1.099279881E0,-6.472895145E-1,3.796132016E0
6.966101960E-1,-3.528487682E0,1.086877823E0,-6.346354485E-1,3.746236896E0
7.048175800E-1,-3.393607855E0,9.681968689E-1,-3.066015244E-1,3.542313361E0
7.130366960E-1,-3.483836174E0,9.389491081E-1,-4.868693352E-1,3.640849031E0
7.212454260E-1,-3.436158895E0,7.581081390E-1,-5.485460758E-1,3.561294526E0
7.294736960E-1,-3.627336979E0,6.030883789E-1,-4.928455353E-1,3.710011573E0
7.376967340E-1,-3.549839973E0,4.422659874E-1,-3.941240311E-1,3.598929951E0
7.459083110E-1,-3.443713427E0,3.160586357E-1,-3.444242477E-1,3.475296144E0
7.541190800E-1,-3.502904177E0,2.195334435E-1,-4.922573566E-1,3.544128935E0
7.623283880E-1,-3.648856163E0,6.310844421E-2,-5.662693977E-1,3.693073924E0
7.705603110E-1,-3.504760504E0,-1.462669373E-1,-6.063468456E-1,3.559830994E0
7.788019260E-1,-3.596038342E0,-2.880744934E-1,-5.240762234E-1,3.645426526E0
7.870111570E-1,-3.675915718E0,-3.724617958E-1,-5.296862125E-1,3.732512778E0
7.952205030E-1,-3.487558603E0,-5.241756439E-1,-5.905470848E-1,3.575831508E0
8.034285800E-1,-3.596412659E0,-6.093816757E-1,-6.575551033E-1,3.706468501E0
8.116908880E-1,-3.762244940E0,-6.738305092E-1,-8.529832363E-1,3.916135205E0
8.199300800E-1,-3.674985409E0,-7.834033966E-1,-8.099558353E-1,3.843860962E0
8.281380800E-1,-3.555784702E0,-9.117097855E-1,-7.805411816E-1,3.752874114E0
8.363473870E-1,-3.381079912E0,-1.003247738E0,-6.017551422E-1,3.577753017E0
8.445574640E-1,-2.957170010E0,-1.081306458E0,-9.924364090E-2,3.150226567E0
8.527988490E-1,-2.831144810E0,-1.037935257E0,4.531128407E-1,3.049262497E0
8.610405800E-1,-2.482556820E0,-9.572086334E-1,6.671764851E-1,2.743075135E0
8.692490410E-1,-2.063292027E0,-9.974985123E-1,8.931832314E-1,2.459665334E0
8.774643100E-1,-1.573366642E0,-1.071583748E0,1.156043053E0,2.227152859E0
8.856735030E-1,-8.839435577E-1,-1.033437252E0,1.407250881E0,1.956962905E0
8.939034260E-1,-2.523455620E-1,-9.504637718E-1,1.501358271E0,1.794752440E0
9.021122330E-1,7.848358154E-2,-8.642401695E-1,1.543652773E0,1.770857032E0
9.103203490E-1,1.952533722E-1,-7.737360001E-1,1.760773182E0,1.933161523E0
9.185326950E-1,3.252844810E-1,-6.043777466E-1,2.223904848E0,2.327409553E0
9.267386180E-1,3.628649712E-1,-4.176712036E-1,2.398303986E0,2.461296859E0
9.349678870E-1,6.919708252E-1,-1.905350685E-1,2.317541838E0,2.426134251E0
9.431881560E-1,1.201658726E0,2.900695801E-2,2.432672501E0,2.713433359E0
9.513962720E-1,1.837348938E0,4.466991425E-1,2.707907200E0,3.302749256E0
9.596030790E-1,2.272491455E0,6.915173531E-1,2.893644333E0,3.743740267E0
9.678100410E-1,2.547515392E0,8.194456100E-1,3.010481358E0,4.027942873E0
9.760384640E-1,2.743608952E0,6.082739830E-1,3.032191992E0,4.134195882E0
9.842793100E-1,2.306787491E0,3.454136848E-1,3.120411396E0,3.895837063E0
9.924877330E-1,1.647575855E0,2.349801064E-1,2.943364859E0,3.381289479E0
1.000696695E0,8.995604515E-1,2.170891762E-1,2.860366344E0,3.006332041E0
1.008904310E0,-1.030616760E-1,6.322107315E-1,3.187061310E0,3.250795581E0
1.017112156E0,-2.827577591E-1,1.715738297E0,2.878511906E0,3.362966049E0
1.025352848E0,-1.183733940E-1,2.970501423E0,2.177148342E0,3.684815581E0
1.033561348E0,1.168017387E-1,3.740733147E0,1.343941212E0,3.976544367E0
1.041792117E0,-5.005550385E-1,4.817739010E0,2.118804455E-1,4.848304635E0
1.050000041E0,-9.874453545E-1,5.370625019E0,-8.147960901E-1,5.521100804E0
1.058255502E0,-1.464978695E0,5.639146328E0,-1.069500566E0,5.923678363E0
1.066498117E0,-1.867439270E0,5.958328724E0,-6.800514460E-1,6.281041361E0
1.074706617E0,-2.084585667E0,5.514355659E0,-5.081660748E-1,5.917081079E0
1.082915617E0,-2.650403500E0,4.319374084E0,-5.010080338E-2,5.067952376E0
1.091123463E0,-2.631156445E0,3.286283493E0,2.749872208E-1,4.218798574E0
1.099385810E0,-3.246761322E0,2.879621983E0,-4.493355751E-2,4.340011621E0
1.107593848E0,-3.709401608E0,2.358270645E0,-1.800392509E0,4.750001464E0
1.115800386E0,-3.569727659E0,1.721067905E0,-4.288958549E0,5.839537288E0
1.124009463E0,-3.345385313E0,1.429202080E0,-5.804331779E0,6.850145172E0
1.132215963E0,-3.373106241E0,1.381562233E0,-5.771941185E0,6.826555864E0
1.140442925E0,-3.365186453E0,1.580958843E0,-5.087306023E0,6.301158092E0
1.148654002E0,-3.043546677E0,1.814872265E0,-4.580911636E0,5.791518724E0
1.156861117E0,-2.705525875E0,2.140171528E0,-3.601108074E0,4.986800958E0
1.165070040E0,-2.298219681E0,2.411825657E0,-2.740439892E0,4.313783432E0
1.173275155E0,-1.947920322E0,2.691261292E0,-2.047998905E0,3.902765742E0
1.181481963E0,-7.833623886E-1,2.677635670E0,-1.514497280E0,3.174443482E0
1.189693194E0,-5.492687225E-3,2.269980431E0,-1.515517712E0,2.729401997E0
1.197899540E0,-3.554105759E-2,1.864034653E0,-1.419857979E0,2.343477125E0
1.206110694E0,-5.708074570E-1,1.423466206E0,-1.197490215E0,1.945780051E0
1.214317309E0,-5.451650620E-1,1.179886341E0,-1.253171444E0,1.805484808E0
1.222544309E0,-6.108107567E-1,9.753928185E-1,-1.404691696E0,1.815940443E0
1.230760232E0,-1.017236233E0,1.074411869E0,-1.270937085E0,1.950490065E0
1.238966655E0,-1.442112446E0,1.098776817E0,-8.485005498E-1,2.001737241E0
1.247185732E0,-1.722299576E0,1.047851562E0,-5.440089703E-1,2.088122239E0
1.255393770E0,-1.767002583E0,9.173855782E-1,-4.422996640E-1,2.039490970E0
1.263624001E0,-2.063469887E0,7.686753273E-1,-6.919190288E-1,2.308142473E0
1.271842963E0,-2.058154583E0,3.694162369E-1,-5.454303622E-1,2.161009700E0
1.280049963E0,-1.870501041E0,-1.109147072E-1,-2.921421528E-1,1.896423807E0
1.288268809E0,-1.473244667E0,-6.065320969E-1,-9.244230390E-2,1.595893672E0
1.296475040E0,-1.085762024E0,-7.952208519E-1,-2.042041868E-1,1.361232796E0
1.304733809E0,-7.827754021E-1,-6.857886314E-1,-2.873607576E-1,1.079638635E0
1.312954078E0,-6.629896164E-1,-6.157145500E-1,-5.419424176E-2,9.064196900E-1
1.321160963E0,-7.189326286E-1,-7.579350471E-1,4.331007898E-1,1.130887242E0
1.329370078E0,-8.933568001E-1,-9.496364594E-1,5.546664000E-1,1.416880585E0
1.337574039E0,-8.093142509E-1,-1.299973488E0,5.590512156E-1,1.630171429E0
1.345810155E0,-7.084560394E-1,-1.551715374E0,1.480222791E-1,1.712203597E0
1.354029539E0,-8.096609116E-1,-1.658561230E0,-2.464582026E-1,1.862019815E0
1.362235732E0,-6.844763756E-1,-1.736898422E0,-6.887106299E-1,1.989886019E0
1.370447155E0,-1.037990570E0,-1.619694233E0,-9.481465816E-1,2.144718110E0
1.378653039E0,-1.159985065E0,-1.364146233E0,-8.176743388E-1,1.968515080E0
1.386861155E0,-1.054004192E0,-1.223561764E0,-6.353299022E-1,1.735417043E0
1.395074116E0,-1.009108067E0,-1.118422031E0,-3.501559496E-1,1.546536815E0
1.403280078E0,-1.173478127E0,2.325725555E0,4.484966099E-1,2.643331134E0
1.411486347E0,-1.825015068E0,5.436515808E-2,6.739454269E-1,1.946236884E0
1.419693193E0,-1.008135319E0,1.087467194E0,1.302387357E0,1.973609522E0
1.427923885E0,-6.293535233E-2,8.034200668E-1,1.363168001E0,1.583562964E0
1.436131577E0,2.584772110E-1,6.531591415E-1,1.119119287E0,1.321308181E0
1.444338808E0,1.667060852E-1,5.621042252E-1,7.723915577E-1,9.697117083E-1
1.452548731E0,1.902174950E-1,5.625905991E-1,5.761739016E-1,8.274462172E-1
1.460755347E0,2.287516594E-1,3.917779922E-1,7.242711186E-1,8.546262166E-1
1.468981616E0,4.695072174E-1,-3.303623199E-2,1.097555876E0,1.194218288E0
1.477194154E0,7.087154388E-1,-1.002540588E-1,1.086875558E0,1.301394225E0
1.485400039E0,1.087275028E0,-3.014793396E-1,8.023964167E-1,1.384520418E0
1.493619385E0,1.258335114E0,-5.595130920E-1,2.708504200E-1,1.403503512E0
1.501828116E0,1.337685108E0,-8.367877007E-1,-2.694201469E-2,1.578081423E0
1.510037039E0,1.406464577E0,-1.025030613E0,1.783963442E-1,1.749472955E0
1.518259385E0,1.548793793E0,-1.004497528E0,3.799853325E-1,1.884719170E0
1.526466462E0,1.731850386E0,-8.256211281E-1,4.149489403E-1,1.962941321E0
1.534675654E0,1.856462002E0,-5.359678268E-1,4.775514603E-1,1.990419070E0
1.542883116E0,2.032638550E0,1.124982834E-1,2.073792219E-1,2.046284799E0
1.551140692E0,2.546975136E0,1.143816948E0,-4.526710510E-1,2.828482037E0
1.559379692E0,2.638027191E0,1.299546242E0,-6.551872492E-1,3.012852175E0
1.567585423E0,3.250718117E0,1.754450798E0,-9.579988718E-1,3.816153524E0
1.575791192E0,3.631256342E0,1.948120117E0,-1.248601556E0,4.305833306E0
1.583996462E0,3.750745296E0,2.077584267E0,-1.204759479E0,4.453750337E0
1.592257654E0,3.502628803E0,2.161152840E0,-8.643286228E-1,4.205479057E0
1.600498692E0,3.163442373E0,2.200001717E0,-5.364881754E-1,3.890397764E0
1.608704231E0,2.730956316E0,1.960902214E0,-2.203989029E-1,3.369248517E0
1.616910731E0,2.016928434E0,2.470295906E0,-6.277854443E-1,3.250304099E0
1.625116269E0,7.089045048E-1,1.674899101E0,7.781422138E-2,1.820408649E0
1.633340615E0,7.257270813E-2,7.470798492E-1,6.936319470E-1,1.022017797E0
1.641546346E0,-1.503629684E-1,3.160963058E-1,4.419900179E-1,5.638094295E-1
1.649750807E0,-1.571369171E-2,-2.209148407E-1,2.705851197E-1,3.496664038E-1
1.657959961E0,-2.599425316E-1,-6.488304138E-1,-1.453937292E-1,7.139260201E-1
1.666165500E0,-1.055048227E0,-3.687648773E-1,-1.300879717E-1,1.125183175E0
1.674372807E0,-1.568018913E0,7.031059265E-2,-6.888100505E-2,1.571105179E0
1.682586000E0,-1.748732090E0,9.324436188E-1,8.316365629E-2,1.983540072E0
1.690793846E0,-1.365363598E0,2.616517067E0,9.461070299E-1,3.099273758E0
1.699001153E0,-3.154182434E-1,4.266927719E0,2.032668829E0,4.736866411E0
1.707207807E0,1.296758175E0,6.705733299E0,2.612242222E0,7.312472241E0
1.715414384E0,2.413587093E0,8.683082581E0,2.083707809E0,9.250035891E0
1.723653576E0,2.809002876E0,9.280282021E0,1.025479674E0,9.750166158E0
1.731861076E0,2.094210625E0,9.096441269E0,5.180616379E-1,9.348761937E0
1.740068884E0,1.028662682E0,8.211168289E0,6.671810746E-1,8.302202248E0
1.748275615E0,-1.400632858E-1,7.333745480E0,1.266556025E0,7.443628460E0
1.756537999E0,-8.121743202E-1,5.683465481E0,1.543826103E0,5.945149791E0
1.764718922E0,-1.411743641E0,4.618705273E0,1.477597713E0,5.050619121E0
1.772943538E0,-2.069410801E0,3.746217251E0,1.170499206E0,4.436966660E0
1.781199307E0,-1.833227634E0,2.854643345E0,2.310312986E-1,3.400454035E0
1.789407422E0,-2.048599720E0,2.034931183E0,-3.393095732E-1,2.907376260E0
1.797669192E0,-2.652274132E0,1.500915527E0,-3.939135075E-1,3.072860775E0
1.805784076E0,-2.922738791E0,6.972541809E-1,-6.109880209E-1,3.066247184E0
1.813975730E0,-3.204677105E0,5.249071121E-2,-8.980215788E-1,3.328536221E0
1.822234884E0,-3.717179298E0,-2.756304741E-1,-9.432176352E-1,3.844873678E0
1.830442422E0,-3.960626602E0,-7.510528564E-1,-1.114486337E0,4.182430307E0
1.838682076E0,-3.880341053E0,-1.310951710E0,-1.271659970E0,4.288678136E0
1.846890422E0,-3.835326433E0,-1.705193043E0,-1.272040129E0,4.385829255E0
1.855114999E0,-3.643437386E0,-2.193589687E0,-1.280337095E0,4.441366319E0
1.863339999E0,-3.427595377E0,-2.545606613E0,-1.444501042E0,4.507228235E0
1.871548114E0,-3.469701052E0,-2.643552780E0,-1.541767597E0,4.626472092E0
1.879776307E0,-3.600630999E0,-2.655246258E0,-1.634772301E0,4.763124684E0
1.887984537E0,-3.580023527E0,-2.621957302E0,-1.799889088E0,4.788614547E0
1.896211114E0,-3.601012468E0,-2.636306286E0,-2.045608759E0,4.909370308E0
1.904436076E0,-3.875853062E0,-2.561220169E0,-2.339469194E0,5.201461508E0
1.912644345E0,-4.132596970E0,-2.449894428E0,-2.566316366E0,5.446679733E0
1.920878383E0,-4.409542084E0,-2.410560131E0,-2.742873907E0,5.725226529E0
1.929086999E0,-4.878564835E0,-2.292260647E0,-2.910939932E0,6.126044809E0
1.937313191E0,-5.433301926E0,-2.243820190E0,-2.876169205E0,6.544298905E0
1.945570537E0,-5.937285900E0,-2.363879204E0,-2.747895956E0,6.956307996E0
1.953777268E0,-6.379554272E0,-2.611649036E0,-2.347822428E0,7.282286286E0
1.962003883E0,-6.686518192E0,-2.954000235E0,-1.628638029E0,7.489199206E0
1.970211768E0,-6.773071766E0,-3.204480648E0,-8.476085663E-1,7.540665597E0
1.978436422E0,-6.296832085E0,-3.518788099E0,1.074864864E-1,7.214119304E0
1.986694768E0,-5.254466057E0,-3.789926052E0,8.675279617E-1,6.536479005E0
1.994903268E0,-4.479608536E0,-3.676685095E0,1.170115948E0,5.912197329E0
2.003129768E0,-3.650876522E0,-3.282276392E0,1.269739151E0,5.070944212E0
2.011337306E0,-2.679013491E0,-2.350337505E0,8.667197227E-1,3.667751730E0
2.019545460E0,-1.766726971E0,-8.048954010E-1,1.912302971E-1,1.950833110E0
2.027803498E0,-5.123105049E-1,1.131544113E0,1.067398548E0,1.637740454E0
2.036009806E0,3.948098660E0,9.496574402E-1,3.171635389E0,5.152533680E0
2.044269344E0,5.037641525E0,3.561751366E0,5.637139320E0,8.357107433E0
2.052476498E0,6.365381718E0,5.649716854E0,7.533472061E0,1.136620369E1
2.060700383E0,8.375669479E0,6.573838234E0,6.977109909E0,1.272977812E1
2.068907229E0,1.022140503E1,5.835797787E0,5.037842274E0,1.280287122E1
2.077114498E0,1.044586372E1,3.016248703E0,2.435639381E0,1.114208977E1
2.085375421E0,6.655497074E0,1.488885880E0,1.672896862E0,7.022179603E0
2.093584037E0,3.723174095E0,9.653759003E-2,1.472455978E0,4.004930893E0
2.101810767E0,1.737736225E0,-1.373772144E0,7.099368572E-1,2.326152926E0
2.110035267E0,1.460471153E0,-3.467903614E0,8.665206432E-1,3.861371452E0
2.118243344E0,9.704699516E-1,-4.893289089E0,-2.497694492E-1,4.994844824E0
2.126470421E0,3.123402596E-1,-5.901751518E0,-1.328617334E0,6.057511984E0
2.134678344E0,-5.990214348E-1,-5.803053856E0,-1.934381247E0,6.146225796E0
2.142902959E0,-2.301385164E0,-4.829909325E0,-1.860034466E0,5.664285125E0
2.151128498E0,-3.345936537E0,-2.654824257E0,-1.931185842E0,4.687521936E0
2.159335498E0,-2.520431519E0,5.477905273E-3,-2.884333134E0,3.830402417E0
2.167561690E0,-2.578080177E0,2.696933746E0,-4.331602097E0,5.716880772E0
2.175768998E0,-4.387886524E0,1.000435448E1,-4.262417316E0,1.172641710E1
2.183993844E0,-2.189819098E0,1.960384369E1,-1.551747322E-1,1.972638016E1
2.192218459E0,-5.788174152E0,2.244964218E1,-1.401064634E0,2.322611410E1
2.200426767E0,-4.684916019E0,2.031132698E1,-4.139846802E0,2.125174754E1
2.208657228E0,-1.102879047E0,1.393982697E1,-4.008625984E0,1.454662161E1
2.216865651E0,7.498173714E-1,6.323849678E0,-2.690664768E0,6.913246541E0
2.225091767E0,3.292450905E0,-1.254039764E0,-3.155228138E0,4.729515123E0
2.233316728E0,-2.571558952E-1,-2.840687752E0,-3.636004448E0,4.621273028E0
2.241524728E0,-3.726853848E0,-2.644501686E0,-4.654804230E0,6.523038493E0
2.249756651E0,-5.447278976E0,-3.627708912E0,-5.352367878E0,8.454641453E0
2.257964382E0,-7.021594524E0,-3.416507244E0,-4.753371239E0,9.141654639E0
2.266189613E0,-9.580462456E0,-1.772801876E0,-3.644473553E0,1.040241678E1
2.274412690E0,-1.047747612E1,-7.061772346E-1,-4.280404091E0,1.134010808E1
2.282618882E0,-9.289593697E0,1.042747498E-1,-5.404485703E0,1.074783187E1
2.290861728E0,-6.951886654E0,1.167681694E0,-6.406094074E0,9.525242773E0
2.299069151E0,-4.783919334E0,2.097778320E0,-7.163847923E0,8.866074393E0
2.307294882E0,-2.465243816E0,3.355822563E0,-7.360542774E0,8.456746542E0
2.315520382E0,-9.713416100E-1,4.517843246E0,-5.512307167E0,7.193048201E0
2.323728574E0,-4.024958611E-1,5.772545815E0,-3.145955801E0,6.586450182E0
2.331966728E0,-4.138240814E-1,6.655623436E0,-6.790845394E-1,6.702964233E0
2.340173420E0,-7.854547501E-1,5.734626770E0,3.353922367E0,6.689669543E0
2.348379459E0,-1.607927084E0,3.420841217E0,4.885191917E0,6.176785913E0
2.356602497E0,-3.346845388E0,1.531350136E0,3.259912014E0,4.916648618E0
2.364811266E0,-4.407276154E0,1.836204529E-1,4.067136049E-1,4.429809874E0
2.373039997E0,-4.234936237E0,-1.057148933E0,-2.358294487E0,4.961229857E0
2.381247997E0,-4.245237350E0,-1.521485806E0,-3.597401857E0,5.768731173E0
2.389474497E0,-4.216953754E0,-1.654947281E0,-3.670005083E0,5.830136086E0
2.397700266E0,-3.865467548E0,-1.700348854E0,-3.154705763E0,5.271166289E0
2.405907766E0,-3.694767475E0,-1.439033985E0,-2.135900736E0,4.503798115E0
2.414159689E0,-3.668262482E0,-1.158524990E0,-3.595381379E-1,3.863624912E0
2.422369651E0,-3.131258965E0,-6.738452911E-1,1.020505190E0,3.361589062E0
2.430596843E0,-1.632426977E0,-4.192409515E-1,1.505631685E0,2.259979554E0
2.438822035E0,-1.599888802E-1,-5.304489136E-1,6.671333909E-1,8.672020831E-1
2.447029035E0,6.208925247E-1,-8.932447433E-1,-5.655937791E-1,1.226087281E0
2.455237881E0,9.116063118E-1,-1.442087650E0,-1.073093891E0,2.015483406E0
2.463445304E0,9.599218369E-1,-1.972027779E0,-1.010343075E0,2.414774652E0
2.471669343E0,1.246705294E0,-2.741483212E0,-5.044233799E-2,3.012067183E0
2.479892766E0,1.033318996E0,-3.279971123E0,1.202765465E0,3.643158448E0
2.488098881E0,8.905849457E-1,-3.806753159E0,2.835600376E0,4.829610818E0
2.496324689E0,1.761113167E0,-4.091604710E0,2.504153252E0,5.110140134E0
2.504532073E0,2.102442026E0,-3.806863785E0,1.735990047E0,4.682535189E0
2.512757843E0,2.166535378E0,-3.135775089E0,1.164443851E0,3.985334419E0
2.520984266E0,2.384394646E0,-2.298799992E0,1.156387091E0,3.508140580E0
2.529194535E0,2.519745588E0,-1.439554691E0,1.322502851E0,3.189114192E0
2.537423612E0,1.516505480E0,-6.305427551E-1,1.249417663E0,2.063593354E0
2.545633650E0,8.937597275E-3,6.822872162E-2,8.333798051E-1,8.362158445E-1
2.553841804E0,-3.286094666E-1,6.556491852E-1,3.476482630E-1,8.116152723E-1
2.562066035E0,6.438779831E-2,1.184426308E0,1.768755913E-1,1.199289974E0
2.570272381E0,1.427605867E0,1.480963707E0,-5.694460869E-2,2.057803368E0
2.578535535E0,3.218029499E0,1.505486488E0,-5.418716669E-1,3.593859809E0
2.586743496E0,5.120219707E0,8.871374130E-1,-9.631291628E-1,5.285005244E0
2.594969727E0,5.890782356E0,-2.393245697E-2,-1.088993907E0,5.990642475E0
2.603196188E0,5.752642632E0,-7.338027954E-1,-8.502496481E-1,5.861253130E0
2.611405842E0,5.314483643E0,-1.202480316E0,-2.860724926E-1,5.456329606E0
2.619639150E0,4.989472389E0,-1.196335793E0,3.868521452E-1,5.145455143E0
2.627847919E0,5.080997467E0,-1.007819176E0,1.417918921E0,5.370542693E0
2.636073765E0,5.142931938E0,-4.100284576E-1,1.563442349E0,5.390939087E0
2.644301111E0,4.492451668E0,2.709312439E-1,5.834665298E-1,4.538277087E0
2.652509342E0,4.430731297E0,9.863119125E-1,-4.250748158E-1,4.559043717E0
2.660737919E0,4.179955959E0,1.817984581E0,-1.657924771E0,4.850341669E0
2.668947304E0,3.506980181E0,1.892467499E0,-1.634666443E0,4.307258711E0
2.677174227E0,3.037803650E0,1.411981583E0,-1.113285780E0,3.530063489E0
2.685399265E0,2.129853964E0,6.279392242E-1,-5.980844498E-1,2.299628358E0
2.693606457E0,1.127663851E0,-8.837032318E-2,-2.403578162E-1,1.156376649E0
2.701836034E0,1.497111320E-1,-5.191812515E-1,-1.280250549E-1,5.552954256E-1
2.710045380E0,-8.587849140E-1,-5.961551666E-1,-5.228375196E-1,1.168876205E0
2.718272457E0,-1.386672616E0,-1.962070465E-1,-1.341777802E0,1.939516903E0
2.726498919E0,-2.396720886E0,3.867797852E-1,-1.381676793E0,2.793367210E0
2.734708073E0,-3.080494881E0,1.248955727E0,-9.542809129E-1,3.458322018E0
2.742961188E0,-2.995537519E0,2.349312782E0,-7.485185862E-1,3.879793249E0
2.751169496E0,-2.842478752E0,4.079714775E0,-1.887442470E-1,4.975880072E0
2.759395649E0,-2.610911369E0,6.133806229E0,3.733435869E-1,6.676812298E0
2.767621303E0,-2.038403988E0,1.033022881E1,7.718855739E-1,1.055767613E1
2.775829419E0,1.363565445E0,1.392623043E1,1.014496326E0,1.402955479E1
2.784071880E0,3.819453716E0,1.737003708E1,2.482693434E0,1.795745476E1
2.792281034E0,4.682531834E0,1.956460953E1,3.731301308E0,2.046027028E1
2.800507649E0,3.059497356E0,1.763675117E1,4.866817951E0,1.854997124E1
2.808732995E0,1.545633793E0,1.289626122E1,3.255788088E0,1.339039556E1
2.816941226E0,1.343441010E-1,8.838598251E0,1.890585423E0,9.039534315E0
2.825179688E0,-4.798064232E-1,4.934562206E0,1.671220660E0,5.231930510E0
2.833389072E0,-4.857583046E-1,2.754550934E0,1.152570128E0,3.025215675E0
2.841616188E0,-4.822421074E-1,8.890666962E-1,-9.876223803E-1,1.413645998E0
2.849841649E0,-1.636391163E0,-4.208593369E-1,-2.455686569E0,2.980821220E0
2.858049957E0,-2.739804983E0,-1.154933453E0,-2.905232430E0,4.157015527E0
2.866277457E0,-3.188443661E0,-1.771757603E0,-1.754214883E0,4.047538491E0
2.874485457E0,-2.835630178E0,-3.062359333E0,-2.649240494E-1,4.181988516E0
2.882694226E0,-2.753711700E0,-2.947707653E0,-1.309601068E-1,4.035970650E0
2.890918995E0,-2.518254757E0,-2.852935791E0,-4.142700434E-1,3.827854401E0
2.899126187E0,-2.174083710E0,-2.340610981E0,-1.194162846E0,3.410443467E0
2.907378110E0,-1.755111217E0,-1.529278755E0,-2.025401592E0,3.085670188E0
2.915588610E0,-1.406292439E0,-1.063953400E0,-2.998377800E0,3.478494601E0
2.923816533E0,-1.475179195E0,-7.860555649E-1,-3.923257351E0,4.264502931E0
2.932044264E0,-2.049738407E0,-8.731637001E-1,-4.778727531E0,5.272578042E0
2.940255033E0,-2.912023067E0,-1.138297081E0,-5.098334312E0,5.980686528E0
2.948486302E0,-3.983739138E0,-1.456068516E0,-5.155321121E0,6.675900606E0
2.956696879E0,-4.981711864E0,-1.677581310E0,-4.912128448E0,7.194493592E0
2.964924226E0,-5.921123981E0,-1.910253525E0,-4.662531853E0,7.774829967E0
2.973150533E0,-6.907866001E0,-1.897425175E0,-4.750431061E0,8.595663456E0
2.981338725E0,-8.264141083E0,-1.844571114E0,-5.439948559E0,1.006436837E1
2.989548033E0,-9.715476990E0,-1.939915180E0,-5.684371948E0,1.142216479E1
2.997756148E0,-1.069019890E1,-2.269979000E0,-4.930321217E0,1.198921284E1
3.005983225E0,-1.137452316E1,-2.805998325E0,-3.525241137E0,1.223440758E1
3.014241764E0,-1.090299797E1,-3.581860781E0,-1.668148279E0,1.159688795E1
3.022450648E0,-9.373072624E0,-4.542151451E0,3.792698383E-1,1.042254651E1
3.030712725E0,-7.939497948E0,-5.248568535E0,1.916048288E0,9.708467457E0
3.038922725E0,-7.199011803E0,-5.653567314E0,3.143945217E0,9.678480554E0
3.047149994E0,-6.630746841E0,-5.712800503E0,3.940755606E0,9.598564893E0
3.055375687E0,-6.086554050E0,-5.718866348E0,3.759057522E0,9.158716393E0
3.063583417E0,-5.426647663E0,-4.962803364E0,1.981559515E0,7.616068553E0
3.071848725E0,-3.817477226E0,-3.143587828E0,-3.889908791E-1,4.960503070E0
3.080057340E0,-1.352683544E0,-6.951470375E-1,6.411690712E-1,1.650478704E0
3.088267148E0,2.147478104E0,1.519251823E0,3.559115171E0,4.425730348E0
3.096495610E0,6.532167912E0,4.080264091E0,5.288762093E0,9.342846309E0
3.104704417E0,1.227285385E1,7.209888458E0,8.395874023E0,1.652562053E1
3.112936186E0,1.811369896E1,9.207725525E0,9.409138680E0,2.239241367E1
3.121145071E0,2.235471535E1,8.260179520E0,6.366780281E0,2.466778780E1
3.129369917E0,2.020377541E1,4.823853016E0,2.032685757E0,2.087088666E1
3.137595225E0,1.269847107E1,2.625014305E0,6.668055058E-1,1.298408631E1
3.145804456E0,6.854787350E0,4.439291954E-1,-4.886627197E-2,6.869320975E0
3.154030840E0,1.449707985E0,-1.454082012E0,-5.957496166E-1,2.137972251E0
3.162237648E0,-3.184360743E0,-3.277105093E0,-6.698410511E-1,4.618252718E0
3.170461994E0,-6.397956848E0,-5.028569221E0,2.169203758E-2,8.137618250E0
3.178684032E0,-7.360499382E0,-6.991338253E0,-3.220620155E-1,1.015674582E1
3.186891302E0,-7.636745930E0,-7.790359020E0,-1.674692631E0,1.103694602E1
3.195117917E0,-8.472313881E0,-6.552405834E0,-3.758343458E0,1.135073875E1
3.203325571E0,-7.900083542E0,-2.747483253E0,-4.515760422E0,9.505370923E0
3.211550032E0,-4.761356354E0,3.315545559E0,-6.496540546E0,8.710246595E0
3.219807340E0,-3.428162336E0,1.192442703E1,-6.689851761E0,1.409604106E1
3.228014455E0,1.809160233E0,3.124131584E1,-6.289069176E0,3.191935569E1
3.236268186E0,-1.923536777E0,3.755046463E1,4.397859573E0,3.785602405E1
3.244476955E0,-7.073959351E0,3.193336105E1,-4.826307297E0,3.306166498E1
3.252704647E0,-6.643248081E0,1.426531315E1,-9.505520821E0,1.838441814E1
3.260929801E0,-5.031347275E0,5.111209393E0,-4.260068893E0,8.341888505E0
3.269137263E0,-3.895864725E0,-6.314926147E-1,-9.801455736E-1,4.066599344E0
3.277396224E0,-4.097777843E0,-4.142484665E0,-5.422377586E-2,5.827083548E0
3.285601840E0,-5.188396454E0,-5.650745869E0,-2.124131680E0,7.960045353E0
3.293825570E0,-5.523541451E0,-6.372097015E0,-3.607093334E0,9.171927434E0
3.302048993E0,-5.868749142E0,-7.041272640E0,-4.234592438E0,1.009720308E1
3.310255570E0,-6.198492050E0,-7.691317558E0,-5.127682686E0,1.112972593E1
3.318492686E0,-6.160424709E0,-8.279026985E0,-5.635172844E0,1.175790344E1
3.326700224E0,-6.409404755E0,-7.438284874E0,-5.936367035E0,1.147384002E1
3.334924647E0,-6.444074631E0,-5.074879646E0,-9.020322800E0,1.219207631E1
3.343181724E0,-6.602281570E0,-1.235346794E0,-1.140598392E1,1.323679240E1
3.351389686E0,-5.626301765E0,3.031138897E0,-1.316919422E1,1.463798999E1
3.359618762E0,-1.342997551E0,8.038173676E0,-1.293311977E1,1.528664337E1
3.367826878E0,7.495403290E-2,1.124929714E1,-1.163415527E1,1.618350621E1
3.376050685E0,1.484002590E0,1.394225597E1,-4.726519108E0,1.479624102E1
3.384275378E0,4.264132977E0,1.347217274E1,2.016465378E1,2.462306907E1
3.392483378E0,2.860373974E0,8.107517242E0,1.330462074E1,1.584065997E1
3.400734762E0,-6.231832504E-2,3.873678207E0,2.409647942E0,4.562419274E0
3.408942185E0,-1.785538912E0,1.281979561E0,-3.522218227E0,4.151823942E0
3.417149762E0,-1.589970589E0,-7.593717575E-1,-5.514832020E0,5.789475291E0
3.425375647E0,-1.618294001E0,-1.870666027E0,-5.260354042E0,5.812881515E0
3.433585108E0,-1.500755548E0,-2.468780041E0,-3.770792723E0,4.750370497E0
3.441813454E0,-1.238732338E0,-2.880108356E0,-2.512246370E0,4.017569386E0
3.450022070E0,-8.865659237E-1,-2.864489079E0,-2.156967878E0,3.693752461E0
3.458248339E0,-5.484032631E-1,-2.535899162E0,-1.819101214E0,3.168700038E0
3.466472377E0,6.539964676E-2,-2.174152374E0,-1.440399528E0,2.608824728E0
3.474679147E0,4.831809998E-1,-1.774523258E0,-1.098701239E0,2.142321424E0
3.482904262E0,1.035860538E0,-1.724152565E0,-1.975390017E-1,2.021071691E0
3.491111224E0,1.353610992E0,-1.984521866E0,8.137141466E-1,2.536280834E0
3.499335800E0,1.475344181E0,-2.240980625E0,1.711594820E0,3.182481963E0
3.507560070E0,1.385778904E0,-2.575479507E0,2.344942093E0,3.748630588E0
3.515768723E0,9.827940464E-1,-2.805325508E0,2.686992884E0,4.006952221E0
3.524010070E0,3.921804428E-1,-2.712998390E0,2.497908354E0,3.708599723E0
3.532217685E0,-2.508199215E-1,-2.376301765E0,1.751969814E0,2.962957803E0
3.540443493E0,-5.137891769E-1,-1.739938736E0,9.443969727E-1,2.045299921E0
3.548668954E0,-4.410252571E-1,-1.041504860E0,-1.286590099E-2,1.131106176E0
3.556877185E0,-5.866360664E-2,-2.862253189E-1,-2.717787027E-1,3.990363582E-1
3.565143031E0,5.695431232E-1,2.853908539E-1,9.813833237E-2,6.445606573E-1
3.573350223E0,1.086490154E0,7.881717682E-1,7.447527051E-1,1.535034913E0
3.581576069E0,1.450056553E0,1.153591156E0,1.471208572E0,2.365986311E0
3.589801300E0,1.624372005E0,1.510101318E0,1.788477302E0,2.849147497E0
3.598010415E0,1.992812395E0,1.623200417E0,1.570202708E0,3.011912578E0
3.606237031E0,2.509797812E0,1.518192291E0,7.129731774E-1,3.018662558E0
3.614444800E0,2.878853798E0,1.514481544E0,-2.509039640E-1,3.262576641E0
3.622652723E0,2.878194332E0,1.501793861E0,-4.277499914E-1,3.274501103E0
3.630878646E0,2.470534325E0,1.487767220E0,2.072818279E-1,2.891359007E0
3.639086108E0,2.164224386E0,1.370511055E0,1.090160966E0,2.783993297E0
3.647313838E0,2.523709059E0,1.153597832E0,1.721683502E0,3.265591746E0
3.655523338E0,3.430777073E0,1.069126129E0,1.894493937E0,4.062310830E0
3.663750454E0,3.989705086E0,1.148397446E0,1.742705345E0,4.502619825E0
3.671992107E0,3.795318365E0,1.293955803E0,1.383863807E0,4.241914915E0
3.680200338E0,3.382024050E0,1.193092346E0,1.034585953E0,3.732549278E0
3.688427069E0,3.265088797E0,8.800687790E-1,3.903986216E-1,3.404076525E0
3.696635761E0,3.353571177E0,4.016962051E-1,-2.409063578E-1,3.386123942E0
3.704861492E0,3.301537037E0,9.208965302E-2,-2.282247543E-1,3.310696883E0
3.713086261E0,2.633759022E0,-9.510803223E-2,-7.219743729E-2,2.636464411E0
3.721294184E0,1.813940525E0,-2.859230042E-1,-2.720069885E-2,1.836538067E0
3.729545069E0,1.028570175E0,-6.549854279E-1,-3.556823730E-1,1.270225360E0
3.737752530E0,6.465139389E-1,-9.710044861E-1,-1.141891003E0,1.632404682E0
3.745976992E0,9.324188232E-1,-7.948808670E-1,-2.110010862E0,2.439956207E0
3.754203453E0,1.290765762E0,-1.713590622E-1,-2.877845049E0,3.158707379E0
3.762412992E0,6.162543297E-1,9.982376099E-1,-2.821111917E0,3.055310160E0
3.770641684E0,-7.227826118E-2,2.160869598E0,-1.761096835E0,2.788555833E0
3.778848030E0,-3.579947948E-1,2.802505493E0,-8.757637143E-1,2.957897800E0
3.787071876E0,-5.859389305E-1,3.403749466E0,2.392528653E-1,3.462091390E0
3.795295838E0,-4.438812733E-1,4.296776772E0,7.250770926E-1,4.380075113E0
3.803503068E0,-1.381196976E-1,6.148970604E0,6.027538776E-1,6.179986147E0
3.811777684E0,6.105895042E-1,8.321833611E0,-3.501945138E-1,8.351548981E0
3.819986415E0,1.154865265E0,9.984032631E0,-9.618791938E-1,1.009652579E1
3.828213107E0,2.651621819E0,1.207241344E1,-1.739004374E0,1.248192296E1
3.836436684E0,1.688834190E0,1.257156181E1,-1.283102512E0,1.274922270E1
3.844644607E0,1.236138344E-1,1.187178993E1,5.813900232E-1,1.188666021E1
3.852853222E0,-1.805212975E0,9.839389801E0,2.204538822E0,1.024365057E1
3.861061799E0,-2.911619186E0,7.123847961E0,1.891844034E0,7.925011666E0
3.869287761E0,-3.333686590E0,5.018395424E0,1.197049260E0,6.142530899E0
3.877511222E0,-3.142134190E0,3.442955017E0,5.605869293E-1,4.694806090E0
3.885718107E0,-2.817570686E0,2.610596657E0,-5.775105953E-2,3.841517234E0
3.893969107E0,-2.530885935E0,1.944833279E0,-1.107290506E0,3.378439338E0
3.902177530E0,-2.648417711E0,1.426700592E0,-1.520836711E0,3.370835987E0
3.910403530E0,-3.162607431E0,7.502779961E-1,-2.060385704E0,3.848401238E0
3.918628530E0,-3.886829853E0,3.031048775E-1,-2.146785498E0,4.450618704E0
3.926836722E0,-4.343207359E0,-2.423028946E-1,-2.033709526E0,4.801888722E0
3.935064299E0,-4.306637764E0,-8.730006218E-1,-1.920480847E0,4.795571457E0
3.943274029E0,-3.958634615E0,-1.580293655E0,-2.022290230E0,4.717814518E0
3.951483145E0,-3.190867662E0,-2.168213844E0,-2.104096889E0,4.394315810E0
3.959743068E0,-2.034371376E0,-2.420866489E0,-2.151984692E0,3.824957460E0
3.967951722E0,-7.052912712E-1,-2.331793308E0,-2.285023451E0,3.340064068E0
3.976179299E0,-1.026291847E-1,-2.166651249E0,-2.822373867E0,3.559593324E0
3.984387106E0,-4.219727516E-1,-1.991329670E0,-3.271795034E0,3.853322930E0
3.992613106E0,-1.496056080E0,-1.833667278E0,-3.588517189E0,4.298601528E0
4.000836760E0,-2.760383606E0,-1.760550976E0,-3.477122784E0,4.775943911E0
4.009043683E0,-4.251190662E0,-1.502913475E0,-3.136182785E0,5.492450584E0
4.017305491E0,-5.646020889E0,-1.219516754E0,-3.026264906E0,6.520970194E0
4.025513683E0,-6.503454685E0,-9.540843964E-1,-3.222201586E0,7.320367678E0
4.033739683E0,-7.284694195E0,-8.168025017E-1,-3.666568041E0,8.196197718E0
4.041998875E0,-8.134948730E0,-8.733263016E-1,-3.723607063E0,8.989179008E0
4.050206991E0,-8.500461578E0,-1.128941059E0,-3.431637764E0,9.236259671E0
4.058469760E0,-8.282527924E0,-1.677608013E0,-3.075107098E0,8.992826092E0
4.066678875E0,-7.341043472E0,-2.269180536E0,-2.378862381E0,8.043574193E0
4.074905606E0,-6.207953453E0,-2.935868502E0,-1.497544527E0,7.028559564E0
4.083130837E0,-5.395606995E0,-3.522353172E0,-6.929321289E-1,6.480717680E0
4.091337567E0,-4.776929379E0,-3.931467056E0,2.524209023E-2,6.186770132E0
4.099566183E0,-4.402880669E0,-3.973309040E0,3.163239956E-1,5.939074320E0
4.107776644E0,-3.889031649E0,-3.970838308E0,5.964756012E-1,5.589982753E0
4.116002375E0,-3.185387135E0,-3.705589294E0,8.167045116E-1,4.954300099E0
4.124261836E0,-2.079756260E0,-3.509918928E0,1.100387573E0,4.225608808E0
4.132470183E0,-7.359094620E-1,-3.170498133E0,1.628966808E0,3.639663997E0
4.140697913E0,7.652511597E-1,-2.922634602E0,2.298079967E0,3.795862733E0
4.148907336E0,2.068108559E0,-2.549945831E0,2.575200319E0,4.172643459E0
4.157116029E0,4.223463535E0,-2.004210472E0,1.958714962E0,5.068635729E0
4.165340798E0,6.388077259E0,-1.109436512E0,1.384435654E0,6.629859917E0
4.173548067E0,8.355375290E0,-6.269264221E-2,7.171986103E-1,8.386334148E0
4.181783067E0,9.251440048E0,9.703264236E-1,3.729104996E-3,9.302187390E0
4.189986336E0,8.845699310E0,1.453961372E0,-3.042404652E-1,8.969557527E0
4.198208259E0,7.302939892E0,1.524612904E0,-3.768441677E-1,7.469898734E0
4.206420413E0,5.211709499E0,1.243438244E0,-1.404571533E-1,5.359830481E0
4.214624644E0,2.612350941E0,9.664683342E-1,-6.296825409E-2,2.786109021E0
4.222872298E0,3.454399109E-2,1.140841961E0,-7.620170116E-1,1.372364235E0
4.231077951E0,-2.529561043E0,3.159423351E0,-1.682089806E0,4.382928370E0
4.239301336E0,-4.639866829E0,7.826220036E0,6.546354294E-2,9.098481726E0
4.247530951E0,-3.471967220E0,1.371999741E1,1.188828945E0,1.420233078E1
4.255735605E0,-2.412936211E0,1.851597404E1,-3.862602711E-1,1.867652947E1
4.264000990E0,-4.077653408E0,1.990788460E1,-4.094111919E0,2.072951709E1
4.272208951E0,-7.045047283E0,1.488690948E1,-3.003308058E0,1.674134476E1
4.280419951E0,-4.169461250E0,7.750114918E0,-2.533288002E-1,8.804139017E0
4.288639182E0,-1.279630184E0,3.066965580E0,3.159248352E0,4.585256964E0
4.296843682E0,-1.418973446E0,1.717615128E-2,3.678622484E0,3.942847200E0
4.305081720E0,-3.015259981E0,-2.350386143E0,1.002900362E0,3.952457073E0
4.313287990E0,-3.985676527E0,-3.431743145E0,-2.794455051E0,5.955791923E0
4.321511528E0,-3.953666449E0,-3.636731625E0,-5.826231956E0,7.924788584E0
4.329728836E0,-3.767843246E0,-3.516433477E0,-7.672245026E0,9.242580314E0
4.337934759E0,-4.285016060E0,-3.304584980E0,-7.538012505E0,9.279185150E0
4.346162528E0,-5.159899712E0,-2.239305496E0,-6.717238903E0,8.761298569E0
4.354369028E0,-6.160907269E0,-5.809736252E-1,-6.278362274E0,8.815449028E0
4.362593989E0,-6.386394024E0,1.490192413E0,-5.555747032E0,8.594941951E0
4.370813528E0,-6.276776314E0,3.219845772E0,-4.678932667E0,8.465089402E0
4.379020336E0,-6.145277023E0,4.756150723E0,-3.688046217E0,8.601574524E0
4.387252643E0,-5.311843872E0,5.562232018E0,-2.274349451E0,8.020397482E0
4.395458643E0,-5.234881878E0,6.223820210E0,-1.335902333E0,8.241635840E0
4.403682489E0,-5.065533161E0,6.039386272E0,-9.261357784E-1,7.936721000E0
4.411900874E0,-5.040847778E0,5.997594357E0,-2.281053066E0,8.159931831E0
4.420105105E0,-4.687332630E0,5.880774498E0,-3.598225832E0,8.336775457E0
4.428330220E0,-3.295669794E0,4.831734657E0,-3.264008522E0,6.697824335E0
4.436537797E0,-1.640716553E0,3.724835396E0,-2.772507668E0,4.924748552E0
4.444807258E0,-1.050873756E0,3.248994827E0,-2.514427662E0,4.240595419E0
4.453061220E0,-8.650937080E-1,2.413647652E0,-2.532269478E0,3.603674627E0
4.461268335E0,-3.822889328E-1,1.339119911E0,-2.371178627E0,2.749886370E0
4.469495374E0,4.571976662E-1,-4.853248596E-2,-2.066532135E0,2.117059322E0
4.477702527E0,1.269215107E0,-1.190825462E0,-1.535696745E0,2.321063713E0
4.485910066E0,2.039234638E0,-2.227648258E0,-1.285749674E0,3.282384331E0
4.494131297E0,2.603522301E0,-2.734005928E0,-1.241235852E0,3.974139306E0
4.502338681E0,2.380568981E0,-3.081040382E0,-1.425432324E0,4.146296640E0
4.510565527E0,2.367926598E0,-3.126362324E0,-1.676358700E0,4.265137306E0
4.518773989E0,2.348082542E0,-2.958434105E0,-1.838420987E0,4.200668483E0
4.527001643E0,1.908614635E0,-2.600244522E0,-1.321066856E0,3.485584462E0
4.535223835E0,1.396104813E0,-2.239806175E0,-7.517324686E-1,2.744256193E0
4.543432181E0,5.915088654E-1,-1.854420662E0,-7.119345665E-2,1.947774945E0
4.551695373E0,-6.300168037E-1,-1.484124184E0,8.294750452E-1,1.813167013E0
4.559903835E0,-1.764797926E0,-1.383643627E0,1.285374880E0,2.584795928E0
4.568129719E0,-1.657687902E0,-1.634065628E0,1.207533598E0,2.622258006E0
4.576384027E0,-1.295977116E0,-1.904871464E0,6.204704642E-1,2.386016675E0
4.584593604E0,-8.814272881E-1,-1.914610386E0,-2.545869350E-2,2.107912507E0
4.592803335E0,-4.625062943E-1,-1.855324745E0,-3.582171798E-1,1.945369253E0
4.601012181E0,-9.717655182E-2,-1.406469345E0,-4.244811535E-1,1.472339482E0
4.609215412E0,-1.856884956E-1,-8.793625832E-1,-2.619953752E-1,9.361625642E-1
4.617402758E0,-4.190714359E-1,-6.359004974E-2,1.350461245E-1,4.448617972E-1
4.625609873E0,-7.147650719E-1,5.055942535E-1,1.071875453E0,1.383991201E0
4.633836296E0,-9.686639309E-1,1.045287132E0,2.230783463E0,2.647136161E0
4.642044373E0,-6.531178951E-1,1.363945007E0,2.420819283E0,2.854343176E0
4.650271873E0,7.143907547E-1,1.305349350E0,1.451315641E0,2.078607266E0
4.658492411E0,2.186408758E0,1.014035225E0,1.786448956E-1,2.416726028E0
4.666700796E0,3.105109453E0,6.141729355E-1,-5.719132423E-1,3.216519527E0
4.674928257E0,3.335389376E0,2.297210693E-1,-4.895898104E-1,3.378948393E0
4.683137373E0,3.158497095E0,4.602527618E-2,1.793479919E-2,3.158883328E0
4.691346373E0,3.067080975E0,-2.174758911E-2,2.007616758E-1,3.073721509E0
4.699568450E0,3.252439499E0,4.847526550E-3,-1.358692646E-1,3.255279811E0
4.707777027E0,3.545405865E0,-1.673660278E-1,-6.653280258E-1,3.611173703E0
4.716029373E0,3.869592428E0,-3.355522156E-1,-1.020151496E0,4.015849838E0
4.724236526E0,3.907986879E0,-4.748458862E-1,-9.413447380E-1,4.047711697E0
4.732461180E0,3.471581697E0,-3.008918762E-1,-3.606638908E-1,3.503211933E0
4.740689219E0,2.804760456E0,2.103176117E-1,2.470420599E-1,2.823463209E0
4.748897065E0,2.604787588E0,7.013359070E-1,7.926198840E-1,2.811589713E0
4.757160257E0,2.741069078E0,1.064755440E0,9.736618400E-1,3.097608952E0
4.765368180E0,2.990254164E0,1.441870689E0,8.843456507E-1,3.435502624E0
4.773593026E0,3.169205427E0,1.792556763E0,5.487544537E-1,3.682153478E0
4.781828219E0,2.994126797E0,2.080834389E0,2.464399338E-1,3.654504025E0
4.790037526E0,2.705881834E0,2.017243385E0,1.125248671E-1,3.376940808E0
4.798277103E0,2.343974829E0,1.549604416E0,-1.024228334E-1,2.811757863E0
4.806485218E0,1.768406868E0,4.524660110E-1,-5.729079843E-1,1.913168027E0
4.814693488E0,9.766929150E-1,-8.379468918E-1,-1.006284952E0,1.633613617E0
4.822912295E0,2.776713371E-1,-1.833458900E0,-1.395732284E0,2.320935483E0
4.831118257E0,-7.888777256E-1,-2.199202538E0,-1.414616823E0,2.731292848E0
4.839344988E0,-1.428889751E0,-1.656604290E0,-1.743614554E0,2.797544532E0
4.847552026E0,-2.387991905E0,-1.064362049E0,-1.795212626E0,3.171460276E0
4.855776449E0,-2.950392962E0,2.416048050E-1,-1.345639348E0,3.251759026E0
4.863997603E0,-2.449699163E0,1.413417816E0,-8.564007282E-1,2.955029293E0
4.872205718E0,-3.381633759E-1,2.681335449E0,-9.540392160E-1,2.866026009E0
4.880458103E0,2.376823425E-1,4.596443176E0,-7.152339816E-1,4.657825932E0
4.888665910E0,9.041166306E-1,7.345416069E0,-5.724141598E-1,7.422952383E0
4.896891334E0,3.603154182E0,9.508688927E0,-2.557539940E-2,1.016850723E1
4.905111718E0,4.085918427E0,1.236107635E1,6.085511446E-1,1.303308377E1
4.913318333E0,4.143547058E0,1.494841003E1,1.079043269E0,1.554954273E1
4.921526795E0,1.940826893E0,1.527658272E1,2.925151110E0,1.567473437E1
4.929734756E0,-8.464884758E-1,1.243957424E1,3.347152233E0,1.290980163E1
4.937959256E0,-3.310853243E0,9.023954391E0,2.503925562E0,9.932932360E0
4.946178910E0,-4.306742668E0,5.774944782E0,2.258262873E0,7.549686805E0
4.954386256E0,-3.596502542E0,3.585366249E0,1.511044383E0,5.298390020E0
4.962613564E0,-2.871925592E0,1.371193409E0,7.677837610E-1,3.273777616E0
4.970822295E0,-1.889859200E0,-2.570652962E-1,-4.514795542E-1,1.959970446E0
4.979047872E0,-2.189358234E0,-1.269412041E0,-1.272549629E0,2.832680527E0
4.987267564E0,-2.723312855E0,-1.677735329E0,-1.770084858E0,3.655739206E0
4.995474525E0,-3.165611982E0,-2.192242146E0,-1.536376595E0,4.145778321E0
5.003734525E0,-3.473224640E0,-2.589147568E0,-1.604239464E0,4.619584265E0
5.011942102E0,-3.806118727E0,-2.868065834E0,-1.758571744E0,5.079853932E0
5.020149564E0,-3.875134706E0,-2.958240747E0,-2.591351509E0,5.521137560E0
5.028384564E0,-3.578368187E0,-2.977547407E0,-2.970167160E0,5.521992430E0
5.036591987E0,-3.377640963E0,-2.735269785E0,-3.567794561E0,5.623105663E0
5.044854487E0,-2.789273739E0,-2.555354357E0,-4.148216724E0,5.614052536E0
5.053060948E0,-2.286872864E0,-2.356879234E0,-4.657135010E0,5.698558916E0
5.061284794E0,-2.028937340E0,-2.350062609E0,-4.830352306E0,5.742097561E0
5.069505871E0,-2.392196655E0,-2.329656363E0,-4.526455879E0,5.624829458E0
5.077713910E0,-3.150388241E0,-2.338123083E0,-4.054174900E0,5.641639809E0
5.085940410E0,-4.300930977E0,-2.154568911E0,-3.549407005E0,5.978165651E0
5.094148410E0,-5.633874893E0,-1.780372620E0,-3.154987812E0,6.698075923E0
5.102374602E0,-6.824666023E0,-1.298863888E0,-3.047328949E0,7.586127303E0
5.110595294E0,-7.790663242E0,-8.995804787E-1,-2.881017923E0,8.354875407E0
5.118802756E0,-8.305985451E0,-7.280430794E-1,-2.488928556E0,8.701391061E0
5.127011640E0,-8.713765144E0,-7.365045547E-1,-2.087877274E0,8.990626978E0
5.135219371E0,-8.405927658E0,-1.156539440E0,-1.427875876E0,8.604419375E0
5.143444910E0,-7.216680527E0,-1.939333916E0,-8.818233013E-1,7.524566844E0
5.151700794E0,-6.198881626E0,-2.638459921E0,-3.448381424E-1,6.745851875E0
5.159909294E0,-5.452116013E0,-3.292690516E0,4.901630878E-1,6.388085762E0
5.168138948E0,-5.170557976E0,-3.830160379E0,1.309949875E0,6.566640464E0
5.176347602E0,-4.852879524E0,-4.197067261E0,1.888986826E0,6.688354394E0
5.184573909E0,-4.570032597E0,-4.378682613E0,2.157767296E0,6.686854198E0
5.192796563E0,-4.026861191E0,-4.250125885E0,2.024717569E0,6.195051438E0
5.201006409E0,-2.904623508E0,-3.827290297E0,1.342204332E0,4.988637210E0
5.209259178E0,-1.540838718E0,-2.743735790E0,5.637040138E-1,3.196878518E0
5.217469755E0,3.220400810E-1,-1.036787987E0,3.527030945E-1,1.141507169E0
5.225678986E0,2.211684227E0,1.310778618E0,4.072923660E-1,2.602993426E0
5.233901255E0,4.339221954E0,4.271608829E0,1.601704836E0,6.296105744E0
5.242112294E0,6.672426701E0,7.469968319E0,2.237094402E0,1.026286004E1
5.250353563E0,8.568895340E0,1.038845062E1,2.920799255E0,1.377958425E1
5.258564755E0,1.100104904E1,1.022699547E1,3.318929672E0,1.538277642E1
5.266793409E0,1.350112629E1,6.130571365E0,1.881056070E0,1.494666144E1
5.275016563E0,9.646560669E0,2.338528156E0,-3.087949753E-1,9.930770414E0
5.283225871E0,5.750883579E0,5.635762215E-1,-1.432867289E0,5.953435039E0
5.291467717E0,2.245636463E0,6.189541817E-1,-2.882593870E0,3.706121264E0
5.299678870E0,-1.105576038E0,2.659202099E0,-1.673203707E0,3.330655314E0
5.307904640E0,-3.337293863E0,6.796628475E0,1.439738512E0,7.707433810E0
5.316159370E0,-3.163772583E0,9.631209373E0,2.323706865E0,1.040044540E1
5.324369909E0,-2.604946852E0,1.075163937E1,-4.300566912E-1,1.107106345E1
5.332602640E0,-2.552993536E0,1.137377357E1,-6.311000824E0,1.325553593E1
5.340812755E0,-5.006558418E0,1.266476822E1,-6.878324032E0,1.525691065E1
5.349022639E0,-8.435510635E0,1.122910595E1,-3.162044525E0,1.439615177E1
5.357245832E0,-6.357628345E0,5.215624809E0,-1.443924069E0,8.349077617E0
5.365455216E0,-2.478638411E0,1.032444000E0,-3.355203867E-1,2.705949540E0
5.373706909E0,-1.515143871E0,-1.633088112E0,2.087374687E0,3.052829969E0
5.381916832E0,-1.724191189E0,-3.477435589E0,2.324714661E0,4.524344348E0
5.390144370E0,-2.858342648E0,-4.426628590E0,-9.371504188E-1,5.351954248E0
5.398366216E0,-4.268080235E0,-4.316010475E0,-3.320034981E0,6.918604453E0
5.406573985E0,-4.565897942E0,-4.292135715E0,-4.311707020E0,7.606620172E0
5.414802062E0,-4.235297203E0,-4.028177738E0,-4.551403046E0,7.408051564E0
5.423011101E0,-3.691323757E0,-3.087553978E0,-5.531887054E0,7.332164416E0
5.431238331E0,-3.754572868E0,-1.673179626E0,-6.343097210E0,7.558520338E0
5.439461562E0,-4.346401691E0,2.107248306E-1,-7.268172741E0,8.471242389E0
5.447669139E0,-5.160981655E0,2.645237923E0,-8.009048462E0,9.888269443E0
5.455879562E0,-6.570624828E0,5.010880947E0,-8.356383324E0,1.175207134E1
5.464088793E0,-7.750187874E0,6.698068619E0,-6.896340370E0,1.234864550E1
5.472313716E0,-6.075583458E0,7.999939919E0,7.625113726E-1,1.007438220E1
5.480535524E0,-3.308184624E0,7.496109486E0,6.936212063E0,1.073530534E1
5.488745024E0,-4.654919624E0,6.086568832E0,4.626595974E0,8.950976883E0
5.497007562E0,-5.258247852E0,4.640245438E0,3.160536289E-1,7.020038326E0
5.505217216E0,-4.489913940E0,2.635625839E0,-2.319164276E0,5.699506443E0
5.513444100E0,-3.772743940E0,1.164786339E0,-3.790567875E0,5.473456757E0
5.521664754E0,-3.052447319E0,-1.390085220E-1,-4.411028385E0,5.365997523E0
5.529873216E0,-2.416814327E0,-1.243012428E0,-4.356692791E0,5.134865477E0
5.538137293E0,-1.800492764E0,-2.182142735E0,-3.761188030E0,4.706384653E0
5.546345600E0,-1.152153492E0,-2.873754978E0,-2.351500750E0,3.887863310E0
5.554553831E0,-5.660572052E-1,-3.121901989E0,-9.318943620E-1,3.306829280E0
5.562774908E0,3.916020393E-1,-2.952005386E0,2.086949348E-2,2.977939471E0
5.570982908E0,1.455842972E0,-2.617091179E0,1.473702073E0,3.337730186E0
5.579211754E0,2.359461784E0,-2.144629002E0,2.763277054E0,4.219264574E0
5.587423754E0,2.993536472E0,-1.677742958E0,2.459221363E0,4.221830380E0
5.595650446E0,3.015254974E0,-1.198899269E0,1.070762396E0,3.416965631E0
5.603874062E0,2.645620823E0,-1.053027630E0,-4.532826543E-1,2.883338671E0
5.612085369E0,1.757476330E0,-8.887171745E-1,-1.426098108E0,2.431521557E0
5.620315831E0,7.466087341E-1,-8.985452652E-1,-1.455882311E0,1.866655163E0
5.628527908E0,-2.538480759E-1,-1.033627987E0,-7.229021788E-1,1.286628626E0
5.636757561E0,-8.263020515E-1,-1.160542011E0,1.271405816E-1,1.430313800E0
5.644981946E0,-1.042536497E0,-1.352246284E0,8.317471743E-1,1.899277685E0
5.653193408E0,-1.045981169E0,-1.340920925E0,1.144104719E0,2.049663665E0
5.661405061E0,-8.162050247E-1,-1.204481125E0,1.068513632E0,1.805183316E0
5.669615908E0,-1.657452583E-1,-9.625043869E-1,1.205168724E0,1.551231072E0
5.677845100E0,6.151843071E-1,-5.517930984E-1,1.502006054E0,1.714336473E0
5.686068831E0,1.487022638E0,4.425621033E-2,1.737183809E0,2.287138502E0
5.694277369E0,1.884104729E0,6.730928421E-1,1.761691332E0,2.665794619E0
5.702531946E0,1.603102922E0,9.896106720E-1,1.331824660E0,2.307168218E0
5.710742369E0,1.025640965E0,7.770423889E-1,3.819233179E-1,1.342236821E0
5.718970407E0,7.670476437E-1,3.193340302E-1,-7.229865789E-1,1.101383632E0
5.727192061E0,1.151794434E0,1.301479340E-2,-1.201046109E0,1.664124863E0
5.735401100E0,2.092010736E0,-1.604881287E-1,-9.010868073E-1,2.283467275E0
5.743663330E0,3.170106411E0,-3.118734360E-1,-4.580262899E-1,3.218171496E0
5.751873907E0,4.071003914E0,-7.189159393E-1,-8.707495928E-1,4.224703285E0
5.760085099E0,4.444084167E0,-1.194813728E0,-1.870729923E0,4.967604491E0
5.768308638E0,4.304147720E0,-1.788632393E0,-2.096416712E0,5.110758893E0
5.776518138E0,3.588560820E0,-2.483045578E0,-1.320464730E0,4.559266520E0
5.784759022E0,2.694357634E0,-2.964859009E0,-3.048444986E-1,4.017820574E0
5.792967869E0,1.975772858E0,-2.905682087E0,1.841512918E-1,3.518604620E0
5.801196984E0,2.187541485E0,-2.354157448E0,-7.064104080E-3,3.213634226E0
5.809405099E0,2.636641502E0,-1.522212505E0,1.201558113E-2,3.044528485E0
5.817613984E0,2.494766951E0,-5.929050446E-1,-2.345958948E-1,2.574962866E0
5.825845368E0,1.696347237E0,4.764080048E-1,-2.415683270E-1,1.778458262E0
5.834055291E0,8.994367123E-1,1.673757553E0,7.923686504E-2,1.901770025E0
5.842283022E0,1.358885288E0,2.796105385E0,-4.585146904E-3,3.108825433E0
5.850537484E0,2.495878696E0,3.637957573E0,1.451816559E-1,4.414207005E0
5.858747407E0,3.389209270E0,3.790122032E0,1.891304255E-1,5.087979443E0
5.866999791E0,3.151203394E0,2.906380653E0,-1.191662550E-1,4.288511622E0
5.875208753E0,2.497231722E0,1.489809990E0,-1.130102158E0,3.119748542E0
5.883417984E0,1.654431820E0,2.324924469E-1,-1.729630232E0,2.404749077E0
5.891675522E0,7.754304409E-1,-6.692161560E-1,-2.097550154E0,2.334279178E0
5.899885368E0,-1.136012077E-1,-1.180470467E0,-2.386729240E0,2.665125180E0
5.908114714E0,-2.119038105E0,-1.027141571E0,-1.977793574E0,3.075225150E0
5.916324753E0,-3.739247084E0,-4.926872253E-1,-1.444377780E0,4.038680060E0
5.924551753E0,-4.298774719E0,4.652442932E-1,-8.051618338E-1,4.398204397E0
5.932772599E0,-3.069891930E0,1.679663658E0,-9.725533128E-1,3.631992072E0
5.940980176E0,-1.144852877E0,3.726272583E0,-1.520445585E0,4.184202463E0
5.949208099E0,8.191089630E-1,6.173742294E0,-1.438041687E0,6.391713174E0
5.957415983E0,2.167423248E0,9.593989372E0,-4.145074487E-1,9.844499583E0
5.965642137E0,3.638897419E0,1.401696301E1,8.705060482E-1,1.450774300E1
5.973863214E0,4.885712147E0,1.759405136E1,2.812834024E0,1.847519585E1
5.982070637E0,3.442774296E0,1.927658844E1,5.371520519E0,2.030499420E1
5.990280060E0,1.505336761E0,1.622355270E1,5.571055889E0,1.721936017E1
5.998488522E0,-2.221366644E0,1.184808540E1,3.631388426E0,1.258962189E1
6.006716445E0,-4.050535202E0,7.441647530E0,2.750689030E0,8.907931495E0
6.014938675E0,-4.160448074E0,3.833826542E0,1.990645885E0,5.997518251E0
6.023145868E0,-3.340260983E0,1.245867252E0,1.397018194E0,3.828993141E0
6.031408598E0,-2.390241146E0,-4.941077232E-1,-1.303952694E0,2.767252754E0
6.039618906E0,-2.946691990E0,-2.259226322E0,-1.830378532E0,4.139732217E0
6.047845983E0,-3.850141287E0,-2.684083462E0,-2.414551735E0,5.278063285E0
6.056102214E0,-4.074517727E0,-3.442547560E0,-1.945582390E0,5.677862207E0
6.064311175E0,-3.878564596E0,-3.875022173E0,-1.532150149E0,5.692674613E0
6.072538944E0,-3.487338781E0,-3.786398172E0,-1.436799884E0,5.344411736E0
6.080747329E0,-3.040781260E0,-3.431370258E0,-1.787090898E0,4.920807494E0
6.088956483E0,-2.549498558E0,-2.689025402E0,-2.542100906E0,4.493670830E0
6.097178637E0,-2.242065430E0,-1.807368279E0,-3.389778614E0,4.447924970E0
6.105387444E0,-2.305862904E0,-9.685530663E-1,-4.284910202E0,4.961406475E0
6.113615714E0,-2.536286831E0,-4.141802788E-1,-4.835588455E0,5.476058062E0
6.121824521E0,-2.776105881E0,-1.647076607E-1,-5.311445713E0,5.995443940E0
6.130051290E0,-3.222439051E0,-1.119227409E-1,-5.336677551E0,6.235123689E0
6.138272290E0,-3.904230356E0,-1.748085022E-2,-5.175487518E0,6.482977040E0
6.146481367E0,-4.523769379E0,5.531024933E-2,-4.838315964E0,6.623960294E0
6.154710636E0,-5.275979042E0,2.029013634E-1,-4.444395065E0,6.901432555E0
6.162892790E0,-6.133837223E0,3.368501663E-1,-4.248795033E0,7.469249383E0
6.171102290E0,-7.380324364E0,4.533181190E-1,-4.508712769E0,8.660437394E0
6.179312329E0,-8.527731895E0,3.886532784E-1,-4.540884972E0,9.669172611E0
6.187520136E0,-9.528856277E0,-6.858301163E-2,-4.157671928E0,1.039663606E1
6.195751752E0,-1.029412270E1,-8.174738884E-1,-3.302534819E0,1.084176931E1
6.203994329E0,-1.041576672E1,-1.763398647E0,-1.747694373E0,1.070757707E1
6.212202982E0,-9.037942886E0,-3.140128851E0,1.307864189E-1,9.568799606E0
6.220412290E0,-7.482690811E0,-4.064112186E0,1.625797987E0,8.668961226E0
6.228620059E0,-6.403023720E0,-4.880455971E0,2.844379425E0,8.538621525E0
6.236880790E0,-5.948209286E0,-5.627861500E0,3.893122673E0,9.066996356E0
6.245089482E0,-5.538578033E0,-6.081371784E0,4.250993252E0,9.259042771E0
6.253296675E0,-5.065260410E0,-6.183690071E0,3.496433735E0,8.724673907E0
6.261506674E0,-3.738977671E0,-5.394963264E0,1.608280182E0,6.758117178E0
6.269716367E0,-1.795633793E0,-4.014184952E0,-2.146720886E-3,4.397497715E0
6.277958328E0,4.934062958E-1,-1.848647594E0,3.448562622E-1,1.944189688E0
6.286200521E0,2.355979919E0,1.069214821E0,1.806784391E0,3.155682422E0
6.294408290E0,6.306084633E0,4.704900265E0,4.600729942E0,9.114247413E0
6.302618136E0,9.676623344E0,8.322235107E0,5.304929256E0,1.382168264E1
6.310827328E0,1.261700249E1,1.089924812E1,3.746836662E0,1.708862623E1
6.319062251E0,1.328030205E1,1.106828594E1,3.695214748E0,1.767846114E1
6.327303713E0,1.390300083E1,6.694465160E0,2.054849863E0,1.556700690E1
6.335511790E0,9.945383072E0,2.906816006E0,-3.160223961E-1,1.036629605E1
6.343721905E0,5.263016701E0,1.172305584E0,-2.609307051E0,5.990169318E0
6.351931213E0,1.603626251E0,4.022121429E-1,-4.008912563E0,4.336446898E0
6.360163597E0,-2.600869656E0,7.257051468E-1,-3.300696135E0,4.264477213E0
6.368406828E0,-5.440407276E0,1.133368492E0,3.984622955E-1,5.571474461E0
6.376615212E0,-6.352859974E0,1.966956615E0,2.991518736E0,7.292251540E0
6.384824520E0,-5.157205105E0,2.955337524E0,8.374671936E-1,6.002677376E0
6.393033866E0,-3.222326279E0,4.357297421E0,-3.068022490E0,6.227534781E0
6.401242751E0,-1.842372417E0,7.116726398E0,-6.825325489E0,1.003131092E1
6.409483482E0,-2.373726606E0,1.237789345E1,-4.670946121E0,1.344115181E1
6.417692751E0,-3.762023926E0,1.547303391E1,-5.117018223E-1,1.593202564E1
6.425902558E0,-4.907824516E0,1.095549393E1,-2.460841656E0,1.225419644E1
6.434110597E0,-2.277257442E0,5.896375179E0,-5.022883415E0,8.073567955E0
6.442320366E0,-1.222405434E-1,2.251531124E0,-1.040488005E0,2.483334541E0
6.450529981E0,-1.042203903E-1,-1.064430714E0,3.375357389E-1,1.121519063E0
6.458737943E0,-2.535811663E0,-2.543912888E0,-1.063910246E0,3.746163181E0
6.466948635E0,-4.530798912E0,-3.099632740E0,-2.680112362E0,6.108916776E0
6.475158443E0,-5.415421486E0,-3.627300978E0,-3.943238735E0,7.617954711E0
6.483421597E0,-5.560735703E0,-4.005069256E0,-4.915816307E0,8.433718709E0
6.491663827E0,-5.450077534E0,-4.264942169E0,-4.822864056E0,8.435229370E0
6.499873520E0,-5.617345333E0,-3.876140833E0,-5.116938114E0,8.530069871E0
6.508082289E0,-6.126396656E0,-1.858951092E0,-6.361157894E0,9.025118553E0
6.516290174E0,-5.981933594E0,9.369688034E-1,-7.875095367E0,9.933708628E0
6.524553135E0,-5.735888004E0,3.738956928E0,-8.694994926E0,1.106721044E1
6.532794712E0,-5.233437061E0,6.157547474E0,-8.729556084E0,1.189577252E1
6.541003827E0,-4.765805244E0,7.599712849E0,-7.865358353E0,1.193031420E1
6.549213904E0,-3.113578081E0,8.090670586E0,-3.731259346E0,9.437987884E0
6.557421943E0,-1.727393150E0,8.456844330E0,2.780937910E0,9.068391190E0
6.565650558E0,-1.238868237E0,7.103276253E0,7.562861443E0,1.044931583E1
6.573893135E0,-2.247257710E0,4.854395866E0,5.131900787E0,7.412943554E0
6.582103135E0,-1.734645844E0,2.207173347E0,2.481484413E-1,2.818188787E0
6.590313250E0,-1.881524324E0,5.182056427E-1,-3.026034594E0,3.600771616E0
6.598522596E0,-2.017592430E0,-6.707992554E-1,-4.424089909E0,4.908484733E0
6.606730981E0,-2.208173037E0,-1.459828854E0,-4.088652611E0,4.870750313E0
6.614972673E0,-3.149367094E0,-1.789906979E0,-3.750765800E0,5.214453392E0
6.623181365E0,-2.935590267E0,-2.359065056E0,-2.620522022E0,4.588029405E0
6.631392788E0,-2.665515184E0,-2.589534760E0,-1.396111727E0,3.969860126E0
6.639602981E0,-2.279128075E0,-2.536786556E0,-4.334912896E-1,3.437677342E0
6.647835096E0,-1.899291277E0,-2.085017204E0,-2.628944814E-2,2.820513292E0
6.656078211E0,-1.275950670E0,-1.257214069E0,4.238064587E-2,1.791768246E0
6.664288404E0,-7.555627823E-1,-3.146276474E-1,8.788200617E-1,1.200912310E0
6.672498942E0,-4.946179390E-1,2.329587936E-1,-3.977777362E-1,6.761241251E-1
6.680708019E0,-6.682300568E-2,4.151229858E-1,-6.282021403E-1,7.559301136E-1
6.688941250E0,3.597016335E-1,3.274917603E-3,-6.459159255E-1,7.393262967E-1
6.697156327E0,5.673184395E-1,-3.935966492E-1,-8.078622818E-1,1.062737033E0
6.705367211E0,6.461091042E-1,-9.345326424E-1,-7.486148477E-1,1.360600024E0
6.713589250E0,6.252675056E-1,-1.423658848E0,-3.640177250E-1,1.596957380E0
6.721797750E0,4.952754974E-1,-1.805973053E0,2.961332798E-1,1.895924947E0
6.730040557E0,2.016153336E-1,-1.965169907E0,9.370625615E-1,2.186464669E0
6.738257250E0,-2.026615143E-1,-1.875984192E0,1.239373684E0,2.257528628E0
6.746466596E0,-4.453399181E-1,-1.678906441E0,1.171909094E0,2.095334199E0
6.754681096E0,-4.889872074E-1,-1.385227680E0,1.011003733E0,1.783281459E0
6.762889442E0,-5.226840973E-1,-9.937272072E-1,7.713061571E-1,1.362206158E0
6.771129096E0,-6.904251575E-1,-6.872301102E-1,3.856124282E-1,1.047697030E0
6.779338326E0,-9.622797966E-1,-5.769538879E-1,3.215456009E-2,1.122449158E0
6.787547019E0,-9.338772297E-1,-6.209764481E-1,-3.575376272E-1,1.177103047E0
6.795760365E0,-3.478777409E-1,-5.925788879E-1,-3.601328135E-1,7.757991392E-1
6.803970403E0,7.747635841E-1,-4.343404770E-1,-3.098679781E-1,9.407063437E-1
6.812198672E0,2.028321981E0,-1.158800125E-1,-8.742804527E-1,2.211760509E0
6.820442249E0,3.273532867E0,6.047344208E-2,-1.665586948E0,3.673398202E0
6.828654442E0,3.936261177E0,-1.968383789E-2,-1.872407675E0,4.358950563E0
6.836867480E0,4.182587624E0,-5.296487808E-1,-1.478262663E0,4.467642282E0
6.845077980E0,4.285758495E0,-1.175697327E0,-8.815399408E-1,4.530684579E0
6.853311403E0,4.188157082E0,-1.576952934E0,-2.979935408E-1,4.485113203E0
6.861526980E0,4.251629353E0,-1.877541542E0,3.817552328E-1,4.663394842E0
6.869737557E0,4.380249977E0,-1.519796848E0,4.057843685E-1,4.654141519E0
6.877948480E0,3.767046213E0,-8.077821732E-1,-1.223011017E-1,3.854621482E0
6.886159595E0,3.711795568E0,-2.241516113E-2,-9.513151646E-1,3.831831067E0
6.894393864E0,4.100724220E0,7.568836212E-1,-1.306329250E0,4.369817852E0
6.902638634E0,4.192062378E0,1.656338692E0,-1.258111238E0,4.679710325E0
6.910850672E0,3.978960991E0,2.749743462E0,-1.157652140E0,4.973266346E0
6.919062441E0,3.605424166E0,3.247139931E0,-8.141672611E-1,4.919946084E0
6.927274480E0,3.149399519E0,3.340053558E0,-3.766467571E-1,4.606141322E0
6.935483787E0,2.583708048E0,2.888235092E0,-1.503739357E-1,3.878151821E0
6.943727133E0,1.653601646E0,2.133073807E0,1.822689772E-1,2.705110765E0
6.951938518E0,2.015111446E-1,1.360616684E0,3.120991290E-1,1.410422053E0
6.960149172E0,-1.359417915E0,6.269826889E-1,1.127655804E-1,1.501279600E0
6.968357364E0,-2.558376312E0,2.021770477E-1,2.251797467E-1,2.576212497E0
6.976618633E0,-3.251128197E0,8.774948120E-2,3.032495677E-1,3.266419266E0
6.984825864E0,-3.020948410E0,3.631563187E-1,8.124825358E-2,3.043782694E0
6.993031941E0,-2.085041285E0,1.167193413E0,-5.597718954E-1,2.454196854E0
7.001242441E0,-1.038993835E0,2.501901627E0,-1.439677954E0,3.067848195E0
7.009450133E0,-3.704991341E-1,4.276924133E0,-1.898054242E0,4.693821424E0
7.017711902E0,8.594813347E-1,7.130901337E0,-9.997437000E-1,7.251754926E0
7.025953710E0,8.278427124E-1,9.130439758E0,-4.558061361E-1,9.179216359E0
7.034164095E0,1.349333763E0,1.142426109E1,1.827618241E0,1.164794538E1
7.042375556E0,8.667864799E-1,1.317820740E1,3.194225788E0,1.358747760E1
7.050583595E0,4.149436951E-1,1.300239944E1,3.538364410E0,1.348163908E1
7.058791556E0,-2.071580887E-1,1.067590141E1,1.915454388E0,1.084835245E1
7.067031518E0,-1.209332943E0,7.786969185E0,1.078684568E0,7.953800076E0
7.075241364E0,-1.123113155E0,4.973433018E0,5.904327631E-1,5.132740982E0
7.083451710E0,-1.068255901E0,3.211021900E0,-5.786048174E-1,3.433164116E0
7.091660210E0,-9.826884270E-1,2.038267136E0,-1.201973438E0,2.562215761E0
7.099868864E0,-1.509618759E0,1.381082058E0,-1.616398692E0,2.607504781E0
7.108108825E0,-2.148384094E0,5.447635651E-1,-2.011373520E0,2.992982625E0
7.116315594E0,-2.753568172E0,-1.675353050E-1,-1.986059785E0,3.399211560E0
7.124524171E0,-3.327844620E0,-6.120462418E-1,-1.836526871E0,3.849932644E0
7.132733017E0,-3.253376245E0,-1.257228374E0,-1.782269239E0,3.916830839E0
7.140962325E0,-3.257185698E0,-1.387300491E0,-1.717244744E0,3.934817764E0
7.149205556E0,-2.644097805E0,-1.579978943E0,-2.059602022E0,3.705340356E0
7.157414133E0,-2.182968140E0,-1.583960056E0,-2.441070080E0,3.637733153E0
7.165623440E0,-2.109438896E0,-1.316608906E0,-2.494553566E0,3.522213645E0
7.173830786E0,-2.276475430E0,-1.056015968E0,-2.770609140E0,3.738152634E0
7.182062056E0,-2.532594204E0,-9.993405342E-1,-3.064095020E0,4.098950256E0
7.190303556E0,-2.939461708E0,-9.940514565E-1,-3.504253626E0,4.680637447E0
7.198512979E0,-3.089070797E0,-1.132683754E0,-4.141412258E0,5.289293560E0
7.206722132E0,-3.738891840E0,-1.362795830E0,-4.042002678E0,5.672240326E0
7.214929325E0,-4.529434204E0,-1.364092827E0,-3.913816214E0,6.139583113E0
7.223190902E0,-5.443789005E0,-1.416737080E0,-3.717971325E0,6.742795671E0
7.231430863E0,-6.429469109E0,-1.420003414E0,-3.736770153E0,7.570860842E0
7.239638863E0,-7.301998138E0,-1.533425331E0,-3.758123159E0,8.354283916E0
7.247848825E0,-8.258920670E0,-1.734363556E0,-3.631652594E0,9.187311257E0
7.256058709E0,-9.030450821E0,-2.004000187E0,-3.229891300E0,9.797818971E0
7.264296786E0,-9.101508141E0,-2.568901062E0,-2.650271416E0,9.821437862E0
7.272536248E0,-8.155440331E0,-3.363640547E0,-1.613739967E0,8.968246283E0
7.280743209E0,-7.229543686E0,-4.009244919E0,-4.547095299E-1,8.279318057E0
7.288949901E0,-6.578751564E0,-4.551637650E0,7.859313488E-1,8.038349676E0
7.297020786E0,-6.016411304E0,-4.966117859E0,1.852773190E0,8.018247942E0
7.305247440E0,-5.544419289E0,-5.282439232E0,2.648333549E0,8.102988342E0
7.313455440E0,-5.021902561E0,-5.169514656E0,2.637212992E0,7.674521449E0
7.321663094E0,-4.218158722E0,-4.237740517E0,1.510487318E0,6.167080316E0
7.329870593E0,-2.784440279E0,-2.009950638E0,-3.237056732E-2,3.434247674E0
7.338079863E0,-1.029114246E0,8.979468346E-1,1.188930035E0,1.810784161E0
7.346312286E0,-1.003427505E-1,5.095463753E0,3.035293341E0,5.931848379E0
7.354553632E0,3.209423065E0,9.616313934E0,4.557240009E0,1.111495959E1
7.362760055E0,7.597215176E0,1.250708485E1,5.453844070E0,1.561695441E1
7.370967055E0,1.041687584E1,1.234586620E1,3.606322527E0,1.655105062E1
7.379174555E0,1.310399818E1,8.737333298E0,1.493681192E0,1.582045654E1
7.387404747E0,1.448486805E1,3.392193794E0,-7.694435120E-1,1.489665816E1
7.395645286E0,1.444868660E1,-1.704564571E0,-1.697788954E0,1.464761319E1
7.403850709E0,9.792970657E0,-3.606076717E0,-2.756119013E0,1.079362106E1
7.412057862E0,3.666319370E0,-3.581242085E0,-3.437871933E0,6.171398222E0
7.420264285E0,-9.078369141E-1,-2.996649742E0,-3.629394531E0,4.793389427E0
7.428479055E0,-4.548670769E0,-2.034657001E0,-2.604726791E0,5.622707225E0
7.436721170E0,-6.002379894E0,-3.922605515E-1,1.770873070E-1,6.017789681E0
7.444929516E0,-4.726253510E0,1.773511887E0,1.034370899E0,5.152935067E0
7.453139708E0,-2.493281841E0,3.384414196E0,-8.299713135E-1,4.284806433E0
7.461349170E0,-2.096712112E0,6.212469101E0,-2.139654875E0,6.897035377E0
7.469609978E0,-2.837202787E0,1.224917221E1,-1.204143643E0,1.263098972E1
7.477849170E0,-3.409909487E0,1.991565704E1,-7.268916368E-1,2.021853728E1
7.486055285E0,-5.315821648E0,1.979462242E1,-1.614773870E0,2.055948762E1
7.494262054E0,-5.882579327E0,1.245895767E1,-7.150292873E0,1.552279144E1
7.502522708E0,-3.684064865E0,5.277685642E0,-4.301459789E0,7.741373004E0
7.510783670E0,-2.378479242E0,9.253644943E-1,-4.714578390E-1,2.595329545E0
7.518991131E0,-2.890118361E0,-1.389863968E0,-4.761006832E-1,3.242094670E0
7.527197977E0,-4.136895180E0,-2.529951096E0,-1.900082707E0,5.208154046E0
7.535405400E0,-4.914484978E0,-3.171051025E0,-3.134425163E0,6.635687478E0
7.543611977E0,-5.365047455E0,-3.889939547E0,-4.072583199E0,7.778258017E0
7.551837785E0,-5.315356731E0,-4.577855587E0,-4.353879452E0,8.256273084E0
7.560075208E0,-5.692926407E0,-4.585462570E0,-4.704837799E0,8.693179900E0
7.568282516E0,-6.899670124E0,-3.969626665E0,-5.323644638E0,9.576250619E0
7.576489631E0,-7.665539742E0,-1.685290813E0,-7.798461437E0,1.106420831E1
7.584694554E0,-7.209963799E0,8.894982338E-1,-1.027990437E1,1.258774082E1
7.592900246E0,-6.373005867E0,2.943399429E0,-1.119084263E1,1.321036573E1
7.601139785E0,-4.500043392E0,4.921514988E0,-9.479597092E0,1.159027443E1
7.609346400E0,-3.108043909E0,6.143516064E0,-6.390568256E0,9.393726055E0
7.617553015E0,-1.310745716E0,6.898115158E0,7.682874203E-1,7.063449060E0
7.625759746E0,-4.526300430E-1,7.681754589E0,1.003387260E1,1.264487354E1
7.633987438E0,-5.968332291E-2,5.458482742E0,9.576647758E0,1.102319274E1
7.642229092E0,-1.889285803E0,3.201255798E0,2.439544201E0,4.446213607E0
7.650436361E0,-2.690823793E0,1.379319191E0,-3.300940037E0,4.476523120E0
7.658644861E0,-2.862898827E0,3.024673462E-2,-5.252821922E0,5.982411111E0
7.666852900E0,-2.671781778E0,-9.627599716E-1,-5.344239235E0,6.051959818E0
7.675084208E0,-2.607824087E0,-1.374975681E0,-4.098191261E0,5.048413237E0
7.683325246E0,-3.872856140E0,-1.179445744E0,-3.636110544E0,5.441636411E0
7.691532861E0,-3.127025604E0,-1.562714100E0,-2.593377829E0,4.352697215E0
7.699740592E0,-2.170703411E0,-1.688652515E0,-1.589563727E0,3.176509635E0
7.707947477E0,-1.193861961E0,-1.533333778E0,-5.110970140E-1,2.009387722E0
7.716206246E0,-2.033457756E-1,-1.138035297E0,4.273445010E-1,1.232516598E0
7.724417746E0,7.687716484E-1,-6.469922066E-1,7.659527659E-1,1.263444657E0
7.732623592E0,1.397709370E0,-4.257345200E-1,3.579185009E-1,1.504309482E0
7.740831707E0,1.752138615E0,-4.855279922E-1,-4.220250547E-1,1.866502693E0
7.749037784E0,1.853046417E0,-7.839555740E-1,-1.015142083E0,2.253637241E0
7.757276861E0,1.877898216E0,-1.285238266E0,-1.035730124E0,2.500215191E0
7.765503900E0,1.716439724E0,-1.808480740E0,-6.505310535E-1,2.576811705E0
7.773712015E0,1.476923466E0,-2.073673248E0,-1.337029338E-1,2.549372499E0
7.781926784E0,1.196647644E0,-2.233306885E0,2.419488132E-1,2.545223851E0
7.790134515E0,9.043617249E-1,-2.281582832E0,2.885124385E-1,2.471179835E0
7.798342592E0,4.710359573E-1,-2.010393143E0,-1.994144917E-2,2.064934169E0
7.806558092E0,2.996568680E-1,-1.671795368E0,-2.974424958E-1,1.724287108E0
7.814767284E0,3.920764923E-1,-1.273811817E0,-7.176744938E-2,1.334717606E0
7.822988207E0,4.047474861E-1,-8.143348694E-1,4.719299674E-1,1.024538775E0
7.831197015E0,2.026791573E-1,-3.525257111E-1,1.120910048E0,1.192389431E0
7.839429745E0,-1.503074169E-1,3.683567047E-2,1.450010300E0,1.458245197E0
7.847639515E0,-5.852334499E-1,1.294918060E-1,1.215170979E0,1.354956393E0
7.855848053E0,-8.714520931E-1,1.036300659E-1,4.420468211E-1,9.826359108E-1
7.864062399E0,-5.445702076E-1,-9.247589111E-2,-4.868723154E-1,7.363105004E-1
7.872270938E0,5.710844994E-1,-2.922410965E-1,-1.265591264E0,1.418895208E0
7.880499630E0,1.885745764E0,-5.431814194E-1,-1.594306469E0,2.528417738E0
7.888712668E0,2.859176636E0,-5.714063644E-1,-1.904436707E0,3.482567363E0
7.896919553E0,3.608680248E0,-5.009298325E-1,-1.772238493E0,4.051460614E0
7.905130630E0,3.808039427E0,-7.049283981E-1,-1.356438279E0,4.103414813E0
7.913335130E0,3.726522684E0,-1.182567120E0,-9.056965113E-1,4.013193551E0
7.921538822E0,3.577154636E0,-1.636186123E0,-6.449418068E-1,3.986112173E0
7.929749591E0,3.639954567E0,-1.902786255E0,-7.394335270E-1,4.173323223E0
7.937955130E0,3.730809689E0,-1.762442112E0,-1.066583037E0,4.261776919E0
7.946161976E0,3.685656309E0,-1.218027115E0,-1.512627125E0,4.166016479E0
7.954368322E0,4.041713238E0,-2.802677155E-1,-1.206934214E0,4.227373426E0
7.962631514E0,4.024876118E0,1.227543831E0,-7.102657557E-1,4.267431202E0
7.970870860E0,3.626969099E0,2.573046684E0,-1.173296928E0,4.599141199E0
7.979074860E0,3.689672709E0,3.575026512E0,-2.312055588E0,5.633835310E0
7.987281014E0,3.594098568E0,4.159697533E0,-3.326867104E0,6.425626258E0
7.995487399E0,3.188771486E0,5.052952766E0,-3.662876606E0,7.008370729E0
8.003747322E0,3.108686209E0,5.365967751E0,-2.344486237E0,6.629793025E0
8.011986706E0,2.228261948E0,4.949885368E0,-7.800338268E-1,5.484065029E0
8.020194091E0,7.869489193E-1,4.227989197E0,4.437787533E-1,4.323438543E0
8.028401975E0,-5.213456154E-1,3.243197441E0,1.333283305E0,3.545105819E0
8.036609168E0,-1.018551826E0,2.121443748E0,1.691582918E0,2.898176007E0
8.044836591E0,-7.380919456E-1,1.779758453E0,1.456648350E0,2.415397335E0
8.053045437E0,-7.758123875E-1,1.933910370E0,1.006283283E0,2.313979305E0
8.061253898E0,-9.128777981E-1,2.733548164E0,5.827463269E-1,2.940276300E0
8.069463014E0,-1.160612345E0,4.040873528E0,2.517294288E-1,4.211774874E0
8.077670552E0,-1.416444302E0,5.730087280E0,-2.750049829E-1,5.908962890E0
8.085877283E0,-1.679732323E0,6.839043617E0,-8.430518508E-1,7.092584486E0
8.094116206E0,-1.911980629E0,7.692047119E0,-7.718933821E-1,7.963609621E0
8.102321783E0,-2.070108891E0,7.875004768E0,-4.048553705E-1,8.152604418E0
8.110527629E0,-2.046857595E0,7.405702114E0,-4.669115543E-1,7.697535724E0
8.118733937E0,-1.350499153E0,6.268425941E0,-1.046778202E0,6.497134472E0
8.126942783E0,1.875920296E-1,4.610307693E0,-1.543123722E0,4.865322047E0
8.135184898E0,1.173379421E0,3.280756950E0,-1.911247253E0,3.974047244E0
8.143392667E0,6.813645363E-1,2.582112312E0,-2.474856615E0,3.640944505E0
8.151600475E0,-3.198161125E-1,2.080875397E0,-2.670152426E0,3.400299801E0
8.159807898E0,-1.768594742E0,1.444997787E0,-2.392176628E0,3.307333516E0
8.168039783E0,-3.044732094E0,1.016068459E0,-2.063331366E0,3.815773180E0
8.176281629E0,-3.546994686E0,3.872261047E-1,-1.774553061E0,3.984991082E0
8.184488244E0,-3.752756596E0,-1.999378204E-1,-1.236175537E0,3.956170769E0
8.192694436E0,-3.487858534E0,-9.514179230E-1,-1.337786198E0,3.854870313E0
8.200900552E0,-3.428001165E0,-1.148081303E0,-1.935123444E0,4.100485997E0
8.209158244E0,-3.188390493E0,-1.480204105E0,-2.794457197E0,4.490637946E0
8.217396590E0,-2.886083126E0,-1.509197712E0,-3.697894335E0,4.927633921E0
8.225604205E0,-2.859284639E0,-1.198661327E0,-3.896559715E0,4.979505522E0
8.233810898E0,-2.771436930E0,-8.425183296E-1,-4.042553902E0,4.973222480E0
8.242015705E0,-2.957865477E0,-5.457029343E-1,-4.003883839E0,5.007778516E0
8.250252821E0,-3.168632984E0,-2.190904617E-1,-3.994699001E0,5.103514057E0
8.258492128E0,-3.387169123E0,1.211385727E-1,-4.155159473E0,5.362176747E0
8.266698551E0,-3.581923246E0,3.572535515E-1,-4.206182003E0,5.536223558E0
8.274906128E0,-3.960098505E0,5.313282013E-1,-4.372303963E0,5.922983350E0
8.283110859E0,-4.418730736E0,6.094050407E-1,-4.276779652E0,6.179595457E0
8.291334321E0,-4.889215469E0,4.480562210E-1,-4.152809143E0,6.430474793E0
8.299570167E0,-5.498489380E0,8.970165253E-2,-3.914635897E0,6.750244888E0
8.307773744E0,-6.130023003E0,-4.866948128E-1,-3.601678610E0,7.126439690E0
8.315977667E0,-6.562788963E0,-1.175518036E0,-3.250023127E0,7.417188952E0
8.324182205E0,-6.666520119E0,-1.949606419E0,-2.865976334E0,7.513805695E0
8.332411090E0,-6.542668343E0,-2.552484035E0,-2.434101343E0,7.432801164E0
8.340648897E0,-6.155121326E0,-3.153568268E0,-1.738155365E0,7.131037473E0
8.348854320E0,-5.616443157E0,-3.625065327E0,-9.643187523E-1,6.753920566E0
8.357061628E0,-5.158954620E0,-3.974825144E0,-4.598789215E-1,6.528823502E0
8.365267743E0,-4.741849899E0,-4.136696815E0,1.093759537E-1,6.293597072E0
8.373497859E0,-4.335111618E0,-4.105855942E0,5.277504921E-1,5.994144337E0
8.381707166E0,-3.665415049E0,-3.968174458E0,8.298211098E-1,5.465370900E0
8.389916474E0,-2.859932423E0,-3.643124580E0,1.143996954E0,4.770775535E0
8.398126128E0,-2.157423019E0,-3.148258448E0,1.220670462E0,4.006999091E0
8.406332936E0,-1.330914021E0,-2.320767879E0,7.963387966E-1,2.791317101E0
8.414539243E0,-4.332547188E-1,-1.035241127E0,4.072339535E-1,1.193848121E0
8.422780128E0,4.539666176E-1,7.485651970E-1,7.931840420E-1,1.181345194E0
8.430987051E0,1.575559139E0,2.808498859E0,2.272063494E0,3.941107073E0
8.439194589E0,2.822298050E0,5.584949493E0,3.937926531E0,7.393530448E0
8.447402589E0,5.162804127E0,7.932224751E0,4.979364872E0,1.069433544E1
8.455648974E0,8.059165955E0,9.067530632E0,5.171311378E0,1.318759755E1
8.463858128E0,9.882205963E0,8.585939407E0,3.854904413E0,1.364685452E1
8.472065974E0,1.125330544E1,5.065251350E0,1.095011473E0,1.238921727E1
8.480274858E0,1.010751820E1,1.651162148E0,-7.742042542E-1,1.027071822E1
8.488481858E0,7.223162174E0,2.659082413E-2,-1.287326574E0,7.337028593E0
8.496743935E0,5.132107258E0,-1.278706551E0,-2.324005127E0,5.777076698E0
8.504982820E0,2.860346317E0,-1.874285221E0,-2.614368677E0,4.304584733E0
8.513188627E0,1.441798210E-1,-1.801071167E0,-1.415075779E0,2.295012991E0
8.521396550E0,-2.207409620E0,-5.184302330E-1,8.843841553E-1,2.433836986E0
8.529603858E0,-3.082212210E0,1.875975132E0,1.907390356E0,4.081354282E0
8.537776550E0,-1.705539465E0,4.059560299E0,-7.599580288E-1,4.468381239E0
8.546013666E0,-2.761635780E-1,6.223067284E0,-5.095080376E0,8.047526128E0
8.554219204E0,-6.968965530E-1,9.579402924E0,-6.932932854E0,1.184551321E1
8.562426973E0,-3.174678564E0,1.432501221E1,-3.031161547E0,1.498240632E1
8.570634435E0,-5.791063309E0,1.395364571E1,6.092312336E-1,1.511991420E1
8.578842127E0,-1.402732849E0,8.372342110E0,-4.477576256E0,9.597523690E0
8.587050819E0,9.734940529E-1,3.998780727E0,-3.917836189E0,5.682198376E0
8.595256781E0,-5.755949020E-2,1.190815926E0,-2.121007442E0,2.433110814E0
8.603463704E0,-1.911310434E0,-1.213813305E0,-3.104583979E0,3.842511158E0
8.611670704E0,-3.668586731E0,-2.635378838E0,-4.106614113E0,6.104754679E0
8.619899742E0,-4.367750168E0,-3.271752834E0,-5.341507912E0,7.636315532E0
8.628139819E0,-4.328788757E0,-3.578745842E0,-5.934471130E0,8.170910690E0
8.636349127E0,-4.206981659E0,-3.807268858E0,-5.645191669E0,8.003885295E0
8.644559319E0,-4.145318031E0,-3.135766506E0,-5.137525082E0,7.308273197E0
8.652768127E0,-4.817763329E0,-1.550695896E0,-6.210379601E0,8.011511470E0
8.660999588E0,-5.431231499E0,1.516113281E-1,-7.643475533E0,9.377845158E0
8.669241627E0,-5.978309631E0,2.078006268E0,-8.438813210E0,1.054854798E1
8.677450627E0,-6.308298111E0,3.394686222E0,-9.233667374E0,1.168670752E1
8.685658627E0,-5.785186768E0,4.506814003E0,-9.536609650E0,1.203024031E1
8.693865934E0,-3.808757305E0,5.048151016E0,-6.479291916E0,9.053821548E0
8.702126281E0,-2.086277485E0,5.260722160E0,6.914579868E-2,5.659729016E0
8.710365511E0,-5.129747391E-1,4.909047127E0,6.139868259E0,7.877808643E0
8.718573011E0,-2.130229712E0,4.163742065E0,3.663327217E0,5.940925257E0
8.726782857E0,-3.237603188E0,3.148707390E0,-1.700233102E0,4.825683913E0
8.734992511E0,-2.151578665E0,1.682409286E0,-4.158770561E0,4.975456194E0
8.743233088E0,-1.099711180E0,2.899303436E-1,-4.137388706E0,4.290851849E0
8.751477473E0,-8.447270393E-1,-3.405170441E-1,-3.785474062E0,3.893498363E0
8.759687780E0,-6.687426567E-1,-8.875055313E-1,-3.093036175E0,3.286602438E0
8.767897973E0,-4.908385277E-1,-1.320969582E0,-2.459534645E0,2.834641735E0
8.776106934E0,-1.953141928E0,-1.197088718E0,-3.227362633E0,3.957733487E0
8.784334780E0,-1.439316034E0,-1.715151787E0,-2.583698273E0,3.418899393E0
8.792577549E0,-8.256685734E-1,-1.880277157E0,-1.955161810E0,2.835459131E0
8.800786126E0,-2.383785248E-1,-2.075319767E0,-5.911246538E-1,2.170991666E0
8.808995819E0,4.496307373E-1,-1.717225552E0,-6.514904499E-1,1.890891642E0
8.817205549E0,8.695006371E-1,-1.655763149E0,-4.525551796E-1,1.924159337E0
8.825437934E0,1.126085758E0,-1.621470451E0,-3.647176027E-1,2.007549374E0
8.833651242E0,1.272773743E0,-1.480264187E0,-3.757402003E-1,1.988043199E0
8.841858549E0,1.358253956E0,-1.451664448E0,-4.602761269E-1,2.040597361E0
8.850070357E0,1.382934570E0,-1.522696018E0,-5.776506066E-1,2.136537248E0
8.858276434E0,1.302508593E0,-1.564749718E0,-8.993468285E-1,2.225712252E0
8.866484165E0,1.271068096E0,-1.726709366E0,-1.095707417E0,2.407844281E0
8.874698395E0,1.234465122E0,-1.883353710E0,-1.099906445E0,2.506136373E0
8.882905626E0,9.611065388E-1,-1.885321617E0,-8.145169020E-1,2.267509903E0
8.891125434E0,6.691794395E-1,-1.773598671E0,-6.204609871E-1,1.994599008E0
8.899331934E0,5.559380054E-1,-1.689017296E0,-4.793487787E-1,1.841635616E0
8.907539203E0,6.617708206E-1,-1.649387836E0,-3.542930782E-1,1.812165677E0
8.915745587E0,8.463196754E-1,-1.615886211E0,-3.240108192E-1,1.852654380E0
8.923953395E0,1.004276991E0,-1.531954288E0,-3.346432149E-1,1.862106951E0
8.932171857E0,1.284496069E0,-1.411974430E0,-2.556667626E-1,1.925867969E0
8.940380087E0,1.391347170E0,-1.209895134E0,-1.006212458E-1,1.846569202E0
8.948641280E0,1.373427868E0,-1.007240295E0,-8.706361055E-2,1.705408219E0
8.956857818E0,1.258633137E0,-8.388566971E-1,-3.480793536E-1,1.552094445E0
8.965063587E0,1.026128531E0,-5.255994797E-1,-8.469706774E-1,1.430578171E0
8.973281010E0,9.644215107E-1,-1.509780884E-1,-1.165021181E0,1.519926836E0
8.981488626E0,1.257705688E0,1.553668976E-1,-1.289377093E0,1.807887098E0
8.989751895E0,1.798642159E0,2.804155350E-1,-1.392761707E0,2.292058389E0
8.997966395E0,2.544569016E0,1.409492493E-1,-1.761187911E0,3.097818753E0
9.006174126E0,3.260505676E0,-1.476173401E-1,-2.366201162E0,4.031326839E0
9.014381049E0,3.693379641E0,-6.069898605E-1,-2.785138607E0,4.665456775E0
9.022586702E0,4.065991402E0,-1.420250893E0,-3.095418453E0,5.303867841E0
9.030813241E0,4.473187447E0,-2.058054447E0,-2.919270992E0,5.724258656E0
9.039028664E0,4.782753468E0,-2.696145535E0,-2.293560028E0,5.950155383E0
9.047238241E0,4.962944508E0,-2.735876560E0,-1.290452957E0,5.812151716E0
9.055452318E0,5.065417290E0,-2.624207973E0,-9.505179524E-2,5.705607299E0
9.063662356E0,4.816907883E0,-2.439129353E0,7.254744768E-1,5.447776314E0
9.071871818E0,3.573596954E0,-1.817918301E0,2.646216750E-2,4.009504008E0
9.080085625E0,3.023255587E0,-1.105561256E0,-1.862763524E0,3.719170335E0
9.088294202E0,3.001967907E0,-5.940151215E-1,-2.533869982E0,3.973054538E0
9.096507702E0,3.201282501E0,5.640792847E-2,-1.795195580E0,3.670710922E0
9.104715779E0,3.415169239E0,7.452440262E-1,-4.847735167E-1,3.528990642E0
9.112948317E0,3.218418598E0,1.095177650E0,4.244842529E-1,3.426050093E0
9.121156856E0,2.578712463E0,1.067917824E0,5.103493333E-1,2.837369008E0
9.129365010E0,1.427847862E0,8.518075943E-1,-1.690268517E-1,1.671195911E0
9.137577010E0,1.166219711E-1,7.238340378E-1,-1.738556385E0,1.886826622E0
9.145785663E0,-4.775526524E-1,7.684412003E-1,-3.273366451E0,3.396098694E0
9.154016779E0,-1.319140673E0,8.204174042E-1,-3.638667107E0,3.956401793E0
9.162228125E0,-2.264380455E0,1.114586830E0,-3.270260334E0,4.130898849E0
9.170437279E0,-2.395660400E0,1.762706757E0,-2.571016312E0,3.931469031E0
9.178650433E0,-1.259450912E0,2.378875732E0,-2.062653065E0,3.391136095E0
9.186859433E0,1.893260479E0,2.810154915E0,-2.658163071E0,4.306650299E0
9.195101933E0,2.899502277E0,5.943743706E0,-1.037552834E0,6.694155554E0
9.203342971E0,3.590307713E0,8.494480133E0,-1.571747184E0,9.355046307E0
9.211550932E0,5.947458267E0,1.193631935E1,-8.615204096E-1,1.336376432E1
9.219760548E0,5.961170197E0,1.510116005E1,-9.971175194E-1,1.626575631E1
9.227967663E0,4.608253002E0,1.631323051E1,1.719920158E0,1.703865050E1
9.236206202E0,2.258930683E0,1.465416241E1,2.648985147E0,1.506201733E1
9.244447048E0,-6.931796074E-1,1.150547028E1,1.017910957E0,1.157119211E1
9.252654740E0,-2.360369205E0,8.284914017E0,4.300355911E-2,8.614696301E0
9.260863471E0,-2.393558264E0,5.453773499E0,-6.782217026E-1,5.994393315E0
9.269071932E0,-1.020345688E0,3.199154854E0,-1.857738853E0,3.837563126E0
9.277299355E0,-3.202805519E-1,1.454537392E0,-2.870484352E0,3.233873694E0
9.285540278E0,-8.010878563E-1,5.152540207E-1,-3.364510059E0,3.496735106E0
9.293748240E0,-1.305448055E0,-6.315193176E-1,-3.293346643E0,3.598491821E0
9.301955624E0,-1.361682415E0,-8.431534767E-1,-2.184699535E0,2.708874092E0
9.310162432E0,-1.503152370E0,-9.892559052E-1,-5.726733208E-1,1.888398535E0
9.318393701E0,-1.897844791E0,-8.198122978E-1,-8.371353149E-2,2.069037218E0
9.326602124E0,-2.354017019E0,-1.221508980E-1,-5.244240761E-1,2.414816262E0
9.334809932E0,-2.097712994E0,5.882596970E-1,-1.422262073E0,2.601783749E0
9.343021817E0,-1.215374947E0,6.622495651E-1,-2.628749847E0,2.970864606E0
9.351228893E0,-9.310374260E-1,2.216377258E-1,-4.003193855E0,4.116007169E0
9.359455470E0,-1.239872932E0,-7.011756897E-1,-5.252858162E0,5.442559242E0
9.367666932E0,-1.944866180E0,-1.584248543E0,-5.788354874E0,6.308518055E0
9.375875086E0,-2.972860336E0,-2.343294621E0,-5.937915802E0,7.041858585E0
9.384082701E0,-3.664893866E0,-2.726621151E0,-5.856516838E0,7.427294219E0
9.392291124E0,-4.217748165E0,-3.031585455E0,-5.714770317E0,7.722597344E0
9.400500278E0,-4.813099861E0,-3.076935291E0,-5.522273064E0,7.945373550E0
9.408740316E0,-5.517494678E0,-3.041677237E0,-5.238214016E0,8.193499498E0
9.416948201E0,-6.448057652E0,-2.924336195E0,-4.913033485E0,8.617835441E0
9.425156047E0,-7.345055580E0,-2.894024134E0,-4.768217087E0,9.222858090E0
9.433363509E0,-8.204797745E0,-3.048590422E0,-4.848122597E0,1.000584341E1
9.441623932E0,-8.782948494E0,-3.300820351E0,-4.676464558E0,1.048355474E1
9.449831432E0,-9.090308189E0,-3.660304785E0,-4.083273411E0,1.061624490E1
9.458040239E0,-8.305324554E0,-4.046797752E0,-3.281145334E0,9.804126820E0
9.466248585E0,-7.274905682E0,-4.408718586E0,-2.581524372E0,8.889618683E0
9.474455970E0,-6.478605747E0,-4.636873722E0,-1.940855503E0,8.199990880E0
9.482717047E0,-6.134567738E0,-4.897178650E0,-1.089988470E0,7.924856776E0
9.490956547E0,-5.875576973E0,-5.026160240E0,-4.114890099E-1,7.742997787E0
9.499163047E0,-5.352744102E0,-4.939724445E0,2.081992626E-1,7.286706660E0
9.507370739E0,-4.511164665E0,-4.581541061E0,1.714773178E-1,6.431992662E0
9.515578701E0,-3.309757710E0,-3.557329178E0,-3.270893097E-1,4.869915235E0
9.523806316E0,-1.495083809E0,-1.658836365E0,-1.633410454E0,2.766774908E0
9.532047008E0,3.459792137E-1,1.407635212E0,-2.414033890E0,2.815794404E0
9.540254547E0,2.078692436E0,5.550727367E0,4.558892727E0,7.477635953E0
9.548463854E0,6.512237549E0,9.535617828E0,1.293718624E1,1.734093519E1
9.556671931E0,1.048303413E1,1.202538300E1,1.262338161E1,2.034339215E1
9.564878470E0,1.449789524E1,1.150713348E1,6.522536278E0,1.962515139E1
9.573119354E0,1.584915161E1,9.044579506E0,1.739168167E0,1.833097736E1
9.581327931E0,1.623860359E1,4.061192513E0,-6.035263538E-1,1.674962015E1
9.589537085E0,1.156604385E1,7.568311691E-1,-1.557710648E0,1.169498295E1
9.597746316E0,7.045298100E0,-1.662556171E0,-8.381028175E-1,7.287162319E0
9.605954777E0,3.821552277E0,-3.582116127E0,-5.090303421E-1,5.262597233E0
9.614198469E0,5.883965492E-1,-5.562748909E0,-6.646156311E-3,5.593784953E0
9.622408239E0,-1.389369011E0,-6.520975590E0,-2.684131145E0,7.187352009E0
9.630618585E0,-2.788762331E0,-6.449974537E0,-5.137770176E0,8.704943954E0
9.638828392E0,-4.306262970E0,-4.513360023E0,-4.678880692E0,7.797835853E0
9.647062546E0,-3.674023628E0,-1.184247017E0,-3.429171324E0,5.163342579E0
9.655271354E0,-9.704520702E-1,3.000037193E0,-4.309547424E0,5.339868855E0
9.663479161E0,-5.932927132E-1,9.666057587E0,-3.025478363E0,1.014584569E1
9.671689200E0,3.520011902E-1,1.998110962E1,-4.029290199E0,2.038636373E1
9.679899161E0,2.179354668E0,2.374470901E1,-1.609732389E0,2.389878724E1
9.688142354E0,-2.926839352E0,2.033918953E1,-9.839406967E0,2.278295303E1
9.696336161E0,-4.291074753E0,1.265745926E1,-7.689094067E0,1.541903904E1
9.704544931E0,-5.807867050E-1,4.412211418E0,-1.907666922E0,4.841912420E0
9.712755007E0,-8.860383034E-1,3.243761063E-1,-1.962263346E0,2.177328907E0
9.720965815E0,-2.598510504E0,-1.015110016E0,-4.071798325E0,4.935812677E0
9.729206392E0,-2.707934618E0,-1.959265232E0,-5.622235298E0,6.540730838E0
9.737445854E0,-2.981796265E0,-3.365865707E0,-6.425556183E0,7.842699356E0
9.745652430E0,-3.051445961E0,-4.233282566E0,-6.574198723E0,8.393574482E0
9.753862853E0,-3.954136372E0,-4.569320679E0,-6.364769936E0,8.776342190E0
9.762071430E0,-4.588278294E0,-3.375908852E0,-5.710247993E0,8.065729379E0
9.770299738E0,-4.643462658E0,-1.544310093E0,-6.289204597E0,7.968734754E0
9.778542353E0,-5.712864876E0,1.096558571E0,-9.170866013E0,1.086020484E1
9.786748007E0,-6.160517693E0,3.349325180E0,-1.165809536E1,1.360445312E1
9.794956623E0,-5.182245731E0,4.833386421E0,-1.221562099E1,1.412227642E1
9.803164315E0,-4.214049339E0,5.957285881E0,-1.071307468E1,1.296215399E1
9.811396046E0,-3.360172749E0,6.958391190E0,-6.744878769E0,1.025686884E1
9.819634815E0,-2.205362797E0,7.434228897E0,-1.150004387E0,7.839253437E0
9.827841969E0,-7.094192505E-2,6.682740211E0,5.826849461E0,8.866579054E0
9.836049238E0,1.352245331E0,3.886046410E0,1.001639843E1,1.082858078E1
9.844255622E0,-7.074799538E-1,1.047784805E0,4.064515591E0,4.256602856E0
9.852482930E0,-2.319176912E0,-4.521465302E-2,-1.762176752E0,2.913055582E0
9.860722622E0,-2.587601662E0,-1.352725506E0,-4.917474270E0,5.719012314E0
9.868929968E0,-2.479211807E0,-2.028468609E0,-4.693178177E0,5.682173658E0
9.877138045E0,-2.212711334E0,-2.225994110E0,-3.356773615E0,4.595548969E0
9.885345314E0,-1.979325056E0,-2.098170757E0,-2.174043655E0,3.611995850E0
9.893551468E0,-1.582268238E0,-1.727719307E0,-1.905672073E0,3.019962389E0
9.901792084E0,-1.326993704E0,-1.393976688E0,-2.419068336E0,3.091273995E0
9.909999007E0,-9.733753204E-1,-9.051160812E-1,-2.827496052E0,3.124328497E0
9.918211507E0,-1.603632808E0,-4.594707489E-1,-3.401529551E0,3.788555772E0
9.926418737E0,-4.860842228E-1,-6.960849762E-1,-2.130408764E0,2.293349879E0
9.934660660E0,5.875568390E-1,-1.159678459E0,-1.027219534E0,1.656881752E0
9.942875160E0,1.571441889E0,-1.844007492E0,-1.610050201E-1,2.428109523E0
9.951083160E0,2.378548622E0,-2.666739464E0,5.790650845E-1,3.619987471E0
9.959295814E0,3.033883572E0,-3.375212193E0,7.363698483E-1,4.597689357E0
9.967503930E0,3.698221445E0,-3.773018360E0,9.921411872E-1,5.375579368E0
9.975767891E0,3.822292805E0,-3.846790314E0,7.240768075E-1,5.471015009E0
9.983977045E0,3.489941597E0,-3.466237068E0,7.121032476E-2,4.919305101E0
9.992186314E0,2.921872377E0,-2.894638062E0,-4.758908749E-1,4.140379188E0
1.000039743E1,2.135048151E0,-2.174230099E0,-7.255861759E-1,3.132440331E0
1.000860474E1,1.567334414E0,-1.490288258E0,-3.957620263E-1,2.198664103E0
1.001683228E1,1.290750742E0,-8.907756805E-1,-1.277192831E-1,1.573477361E0
1.002504462E1,1.377711535E0,-5.186567307E-1,1.815961003E-1,1.483263638E0
1.003325143E1,1.708619356E0,-2.619237900E-1,9.167790413E-3,1.728602969E0
1.004146124E1,2.509299994E0,7.734870911E-2,-1.565136909E-1,2.515365941E0
1.004966816E1,3.637534857E0,4.123334885E-1,9.411960840E-2,3.662040038E0
1.005787608E1,4.432483673E0,7.942228317E-1,4.977721572E-1,4.530505329E0
1.006611601E1,4.672101974E0,8.966007233E-1,6.233740449E-1,4.798023022E0
1.007432124E1,4.422188282E0,7.617788315E-1,-2.093834877E-1,4.492204095E0
1.008252854E1,4.196241379E0,4.750404358E-1,-1.348155022E0,4.433015575E0
1.009073401E1,4.458866119E0,-1.012802124E-3,-1.796057820E0,4.807006531E0
1.009896081E1,4.958017826E0,-3.675413132E-1,-1.541488409E0,5.205114206E0
1.010717228E1,5.329361439E0,-3.893928528E-1,-1.321441174E0,5.504536939E0
1.011537866E1,5.488574982E0,-2.129745483E-1,-1.749111295E0,5.764477757E0
1.012358751E1,5.672957420E0,2.908716202E-1,-2.285468578E0,6.122942007E0
1.013179351E1,5.701982498E0,9.521913528E-1,-2.232500076E0,6.197041986E0
1.014002443E1,5.604400635E0,1.723447800E0,-1.840008020E0,6.145340374E0
1.014826497E1,5.099638939E0,2.126732826E0,-1.591642857E0,5.750011896E0
1.015647031E1,4.380023956E0,2.206125259E0,-1.937607765E0,5.273132121E0
1.016467828E1,3.910974264E0,1.907808304E0,-2.454900026E0,4.996197190E0
1.017288485E1,3.448690891E0,1.608741760E0,-2.802434683E0,4.726008788E0
1.018114689E1,3.283633947E0,1.368563652E0,-2.508576632E0,4.352950159E0
1.018935562E1,2.970748663E0,1.142547607E0,-1.535137653E0,3.533753000E0
1.019756385E1,2.259787321E0,8.796377182E-1,-2.722960711E-1,2.440193927E0
1.020577631E1,1.358176470E0,6.419801712E-1,6.269108057E-1,1.627820328E0
1.021398497E1,7.791872025E-1,7.047023773E-1,6.976491809E-1,1.261131443E0
1.022222485E1,7.582397461E-1,1.213793755E0,1.698875427E-1,1.441209412E0
1.023043631E1,1.087492466E0,2.083475113E0,-6.802332401E-1,2.446676454E0
1.023864428E1,4.747908115E-1,3.067011833E0,-1.729072094E0,3.552700129E0
1.024685278E1,-1.720921993E-1,4.777287483E0,-2.675971031E0,5.478404182E0
1.025505912E1,-4.552352428E-1,6.580964088E0,-3.359850407E0,7.403034663E0
1.026328658E1,-4.253740311E-1,7.966053009E0,-4.098810196E0,8.968789697E0
1.027152404E1,-4.977211952E-1,9.334458351E0,-4.343991280E0,1.030776888E1
1.027973047E1,-3.931994438E-1,1.029331779E1,-3.900705576E0,1.101464938E1
1.028793739E1,-5.924010277E-1,9.992175102E0,-2.644412756E0,1.035313581E1
1.029614408E1,-6.266846657E-1,9.041285515E0,-7.330530882E-1,9.092576327E0
1.030437331E1,-4.298105240E-1,7.223812103E0,9.478807449E-3,7.236593690E0
1.031261362E1,5.266356468E-1,5.196229935E0,8.379592896E-1,5.289643316E0
1.032081974E1,1.403091431E0,3.939877510E0,-6.383175850E-1,4.230691397E0
1.032902712E1,1.382445335E0,2.216019154E0,-1.119564414E0,2.841710835E0
1.033723500E1,4.235219955E-2,1.241749763E0,-1.283537269E0,1.786394163E0
1.034546351E1,-1.058795929E0,1.097440720E-1,-1.379385591E0,1.742353922E0
1.035370289E1,-1.778408051E0,-8.711171150E-1,-1.117121935E0,2.273662605E0
1.036191024E1,-2.294469357E0,-1.636011600E0,-1.090829492E0,3.021759846E0
1.037011808E1,-2.686941385E0,-2.043403149E0,-1.788625002E0,3.820252588E0
1.037832401E1,-2.644572258E0,-2.432754040E0,-2.949276924E0,4.648686806E0
1.038653024E1,-2.389232874E0,-2.575730324E0,-3.548466444E0,4.993439149E0
1.039476824E1,-1.791864872E0,-2.499074459E0,-4.449134827E0,5.408415071E0
1.040297462E1,-1.040608883E0,-2.421961784E0,-4.780516624E0,5.459130419E0
1.041118120E1,-7.056484222E-1,-2.283976555E0,-5.097640038E0,5.630312829E0
1.041938874E1,-7.357611656E-1,-2.114301205E0,-5.322681427E0,5.774300966E0
1.042764950E1,-1.150694370E0,-1.981327057E0,-5.477787971E0,5.937669198E0
1.043588712E1,-2.064956665E0,-1.911595821E0,-5.086587429E0,5.813055675E0
1.044409412E1,-2.981945038E0,-1.786419392E0,-4.624685764E0,5.785413457E0
1.045230135E1,-3.765444040E0,-1.754905224E0,-4.718008995E0,6.286324048E0
1.046050708E1,-4.539944172E0,-1.647261620E0,-5.153816700E0,7.063029839E0
1.046876747E1,-5.843500137E0,-1.595823288E0,-5.574645996E0,8.232242939E0
1.047700724E1,-7.309174538E0,-1.627008438E0,-5.501483917E0,9.291798221E0
1.048521527E1,-8.224271774E0,-1.808771133E0,-5.034836769E0,9.811211980E0
1.049342331E1,-8.295738220E0,-2.159639835E0,-4.325968266E0,9.601943463E0
1.050163120E1,-7.415193558E0,-2.616462708E0,-3.357167244E0,8.549944123E0
1.050987254E1,-6.417661667E0,-3.121498823E0,-2.277199507E0,7.491046240E0
1.051808100E1,-5.761966705E0,-3.592298508E0,-1.331068277E0,6.919292712E0
1.052628827E1,-5.178052902E0,-3.959177494E0,-6.017570496E-1,6.545947589E0
1.053449574E1,-4.614222527E0,-4.089326859E0,-3.712425232E-1,6.176687194E0
1.054270427E1,-3.812687874E0,-4.132885456E0,1.228451729E-1,5.624270793E0
1.055091281E1,-3.345350504E0,-3.937165499E0,2.403984070E-1,5.172082129E0
1.055915397E1,-2.785950899E0,-3.669104815E0,4.023880959E-1,4.624474968E0
1.056736220E1,-2.396465063E0,-3.179002047E0,6.126651764E-1,4.027959462E0
1.057557127E1,-1.543986797E0,-2.549153328E0,9.534111023E-1,3.129068655E0
1.058378081E1,3.853831291E-1,-1.676508427E0,1.169174671E0,2.079944728E0
1.059201031E1,2.893005848E0,-5.463008881E-1,1.686203480E0,3.392817365E0
1.060025170E1,5.466592312E0,8.101410866E-1,2.612961292E0,6.112898396E0
1.060846108E1,8.428360939E0,3.552552700E0,3.393005371E0,9.755530957E0
1.061669135E1,1.165246773E1,6.637276173E0,4.026429653E0,1.400162758E1
1.062489870E1,1.310621262E1,8.697526932E0,3.736201286E0,1.616721942E1
1.063312958E1,1.230629921E1,8.452842712E0,1.890717506E0,1.504893228E1
1.064137096E1,9.158958435E0,6.228094101E0,-1.635506153E-1,1.107711264E1
1.064957893E1,5.875684261E0,4.637087822E0,-2.179200411E0,7.795842702E0
1.065778812E1,3.574690342E0,4.993804455E0,-4.622988701E0,7.686905652E0
1.066599581E1,2.562553406E0,7.789988518E0,-4.390365601E0,9.301930508E0
1.067423674E1,2.344979763E0,1.109273148E1,-2.390536070E0,1.158716032E1
1.068247670E1,2.225485325E0,1.141195011E1,-2.203880787E0,1.183395457E1
1.069059397E1,1.768931866E0,7.361621857E0,-6.596572876E0,1.004178122E1
1.069880423E1,-7.557477951E-1,3.163874149E0,-8.740254402E0,9.325947747E0
1.070701377E1,-4.343675137E0,1.399783134E0,-2.597823620E0,5.251246907E0
1.071525216E1,-6.841132164E0,3.250956535E-1,9.305456161E0,1.155414605E1
1.072346016E1,-5.008613586E0,-5.680322647E-1,8.623033524E0,9.988272016E0
1.073166797E1,-3.452373505E0,-2.721436501E0,2.788120508E0,5.205642651E0
1.073987812E1,-3.526378155E0,-4.647842407E0,-1.496618748E0,6.023093027E0
1.074808804E1,-2.930263281E0,-5.306190968E0,-6.433399200E0,8.839158939E0
1.075631658E1,-2.081882477E0,-5.038490772E0,-8.965425491E0,1.049282984E1
1.076455712E1,-1.566610336E0,-4.271555901E0,-1.012831306E1,1.110329606E1
1.077276531E1,-1.952816963E0,-3.228053570E0,-9.589399338E0,1.030487281E1
1.078097358E1,-2.982466221E0,-1.647708416E0,-7.777987957E0,8.491592574E0
1.078918020E1,-3.921809673E0,8.215622902E-1,-5.734200954E0,6.995471128E0
1.079741131E1,-4.921931267E0,3.121105671E0,-3.423297882E0,6.759118019E0
1.080565189E1,-5.495052338E0,4.434940338E0,-2.205246210E0,7.397797432E0
1.081385970E1,-5.950748444E0,5.235294342E0,-2.824982882E0,8.414287977E0
1.082206843E1,-5.992059708E0,4.923466682E0,-3.671350956E0,8.580449962E0
1.083027627E1,-6.665331841E0,4.729363441E0,-5.160976410E0,9.665878367E0
1.083850304E1,-6.123680115E0,4.305563927E0,-5.615654945E0,9.358040358E0
1.084674273E1,-4.067447662E0,3.567189217E0,-4.678367615E0,7.152348770E0
1.085494758E1,-1.881057978E0,2.755735397E0,-2.867100239E0,4.399172703E0
1.086315600E1,-8.966805935E-1,2.654093742E0,-1.651557922E0,3.252059847E0
1.087136316E1,1.469596148E0,1.490491867E0,-1.989195347E-1,2.102581229E0
1.087957139E1,2.678874731E0,1.026947975E0,3.962020874E-1,2.896198899E0
1.088781273E1,3.079997778E0,1.681575775E-1,-2.191294432E-1,3.092358484E0
1.089602054E1,3.129338026E0,-5.392675400E-1,-1.641473889E0,3.574633197E0
1.090423127E1,-1.712520123E-1,-5.254707336E-1,-4.493561745E0,4.527421330E0
1.091243866E1,6.077988148E-1,-1.600794792E0,-5.010267258E0,5.294784354E0
1.092069796E1,1.705916643E0,-2.445291042E0,-4.815411091E0,5.663725262E0
1.092893808E1,3.010880232E0,-3.164179802E0,-3.896854401E0,5.853452640E0
1.093714577E1,4.174503326E0,-3.684494495E0,-2.869155884E0,6.263707624E0
1.094535854E1,4.630891800E0,-4.034082413E0,-1.876577854E0,6.421878558E0
1.095356546E1,4.151391983E0,-3.968251705E0,-8.858116865E-1,5.810829488E0
1.096182677E1,2.894119024E0,-3.653099537E0,1.347228289E-1,4.662532723E0
1.097003766E1,1.574520826E0,-3.138875008E0,5.240826607E-1,3.550537252E0
1.097824604E1,6.521387100E-1,-2.701217175E0,3.603107333E-1,2.802085464E0
1.098645431E1,1.236691475E-1,-2.446476460E0,-1.402055025E-1,2.453609323E0
1.099466216E1,5.351781845E-3,-2.258858681E0,-6.774708033E-1,2.358270101E0
1.100287070E1,1.421408653E-1,-2.170244694E0,-1.078166962E0,2.427469887E0
1.101111135E1,4.235363007E-1,-2.052304745E0,-1.245471716E0,2.437732052E0
1.101931812E1,6.600580215E-1,-1.985468388E0,-1.199768543E0,2.411888444E0
1.102752739E1,6.850016117E-1,-1.715309620E0,-8.903657198E-1,2.050430544E0
1.103573389E1,5.594608784E-1,-1.484865189E0,-7.534313202E-1,1.756553403E0
1.104394200E1,5.578005314E-1,-1.199560165E0,-7.131434679E-1,1.502883771E0
1.105214866E1,6.760807037E-1,-1.015223503E0,-7.248265743E-1,1.418850747E0
1.106035558E1,5.070624352E-1,-6.210927963E-1,-4.965173006E-1,9.430790023E-1
1.106856870E1,3.213610649E-1,-9.291553497E-2,-1.373585612E-1,3.616263334E-1
1.107677573E1,6.476736069E-1,4.900646210E-1,6.381063163E-2,8.146878117E-1
1.108500235E1,1.816586733E0,8.053045273E-1,-1.105579734E-2,1.987114735E0
1.109320877E1,2.700440645E0,1.026631355E0,-2.425423861E-1,2.899168575E0
1.110141593E1,2.987363815E0,1.237610817E0,-3.125330508E-1,3.248645873E0
1.110962362E1,3.094401836E0,1.300802231E0,-4.800235331E-1,3.390845287E0
1.111783046E1,3.310618877E0,8.220376968E-1,-9.650846720E-1,3.545043265E0
1.112606012E1,3.956905127E0,2.223234177E-1,-1.604444146E0,4.275601350E0
1.113427069E1,4.768471241E0,-4.909849167E-1,-2.089562654E0,5.229307435E0
1.114247750E1,5.423470974E0,-1.129343033E0,-2.311661243E0,6.002768594E0
1.115068404E1,5.805231094E0,-1.716596127E0,-2.337799072E0,6.489431009E0
1.115889154E1,6.101085663E0,-1.957870960E0,-2.006446838E0,6.714337933E0
1.116715393E1,6.254611015E0,-1.934714794E0,-1.717690468E0,6.768584847E0
1.117536546E1,6.331830978E0,-1.548423767E0,-1.740126014E0,6.746683500E0
1.118357269E1,6.146186829E0,-6.049108505E-1,-2.226217270E0,6.564874180E0
1.119178043E1,5.986502647E0,4.435367584E-1,-2.537408829E0,6.517160606E0
1.119998708E1,5.840895176E0,1.654536247E0,-2.565201521E0,6.590432876E0
1.120822350E1,5.304024696E0,2.736181259E0,-2.505789280E0,6.472893154E0
1.121646393E1,4.698765755E0,3.305668831E0,-2.816829443E0,6.398466547E0
1.122467019E1,4.232220173E0,3.276882172E0,-3.644461632E0,6.475472565E0
1.123287758E1,3.834584713E0,2.980191231E0,-3.879461765E0,6.215770530E0
1.124108439E1,3.726349831E0,2.419448853E0,-3.374105215E0,5.578888941E0
1.124931227E1,3.014370203E0,1.948836327E0,-2.357480764E0,4.294427355E0
1.125751981E1,1.953347683E0,1.557670593E0,-1.130602002E0,2.742292059E0
1.126572539E1,6.235224009E-1,1.205019951E0,-9.322845936E-2,1.359979710E0
1.127393158E1,-1.833299398E-1,7.627563477E-1,2.598019838E-1,8.263801689E-1
1.128213850E1,-2.724456787E-2,4.927558899E-1,1.686791182E-1,5.215393354E-1
1.129036962E1,2.333850861E-1,4.763565063E-1,-3.159783483E-1,6.174353700E-1
1.129857996E1,8.831405640E-1,1.155223846E0,-8.110489845E-1,1.665016470E0
1.130678569E1,9.883091450E-1,2.364531517E0,-1.240376949E0,2.847156342E0
1.131499266E1,5.978202820E-1,4.335794449E0,-1.385364652E0,4.590831930E0
1.132319839E1,2.377095222E-1,6.174454689E0,-1.918041468E0,6.469874774E0
1.133142496E1,-8.628082275E-1,7.814123154E0,-2.040335655E0,8.122064287E0
1.133966223E1,-1.206860304E0,8.720413208E0,-2.205584049E0,9.075611236E0
1.134786758E1,-2.274473667E0,9.098954201E0,-1.767612100E0,9.544037434E0
1.135607373E1,-2.991493940E0,8.487018585E0,-6.604288816E-1,9.023008743E0
1.136427946E1,-2.639275551E0,6.440475464E0,-6.640195847E-1,6.991882554E0
1.137248723E1,-2.303468227E0,5.459590912E0,-1.377692223E-1,5.927231998E0
1.138072716E1,-2.579216957E-1,3.609435081E0,-9.440358877E-1,3.739752527E0
1.138893158E1,1.246535778E0,2.376503944E0,-1.957081795E0,3.321414096E0
1.139713816E1,1.305308819E0,1.705543518E0,-2.579551220E0,3.356604579E0
1.140534404E1,5.994710922E-1,1.352584839E0,-2.759462595E0,3.131051764E0
1.141360173E1,-3.648829460E-1,9.162435532E-1,-2.791029453E0,2.960149865E0
1.142184108E1,-1.159581423E0,3.736343384E-1,-2.375021696E0,2.669262024E0
1.143004858E1,-1.670946360E0,-2.548418045E-1,-1.615184903E0,2.337911109E0
1.143825592E1,-1.951648712E0,-9.821214676E-1,-1.113286257E0,2.452121849E0
1.144646116E1,-1.970223427E0,-1.621077061E0,-1.186023951E0,2.813596275E0
1.145472077E1,-1.872129679E0,-2.010035038E0,-2.378037453E0,3.633204166E0
1.146295896E1,-1.407965899E0,-2.257702827E0,-3.591735840E0,4.469916819E0
1.147116269E1,-8.900432587E-1,-2.470440865E0,-4.356943607E0,5.087063265E0
1.147936866E1,-3.953976631E-1,-2.596729279E0,-4.831554413E0,5.499387266E0
1.148757435E1,-2.294664383E-1,-2.570458412E0,-5.018492699E0,5.643153397E0
1.149580031E1,-4.047536850E-1,-2.476508617E0,-5.296699524E0,5.861053346E0
1.150403888E1,-1.088731766E0,-2.213819981E0,-5.266447067E0,5.815651337E0
1.151224581E1,-1.796371222E0,-1.983209610E0,-5.225335598E0,5.870621946E0
1.152045246E1,-2.673582554E0,-1.735221386E0,-4.907049656E0,5.851339441E0
1.152865904E1,-3.375814199E0,-1.484257698E0,-4.720146656E0,5.989902076E0
1.153686600E1,-4.505364895E0,-1.261653900E0,-4.607763290E0,6.566701298E0
1.154510377E1,-5.113162041E0,-1.143077374E0,-4.557176590E0,6.943983756E0
1.155330923E1,-5.787502289E0,-1.256497860E0,-4.645862579E0,7.527151435E0
1.156151573E1,-6.253017426E0,-1.612188339E0,-4.494156837E0,7.867453454E0
1.156972358E1,-6.513389111E0,-2.143894196E0,-4.161448956E0,8.021108242E0
1.157795042E1,-6.385726452E0,-2.827412605E0,-3.306242943E0,7.726772079E0
1.158619146E1,-5.844752789E0,-3.426527500E0,-2.045327425E0,7.077117361E0
1.159439923E1,-5.272229671E0,-3.804517508E0,-9.982230663E-1,6.577781424E0
1.160260915E1,-4.586373806E0,-4.058342457E0,2.005004883E-2,6.124162815E0
1.161081877E1,-4.067987442E0,-4.235133648E0,8.100156784E-1,5.927984838E0
1.161905000E1,-3.674369812E0,-4.211541176E0,1.350883484E0,5.750039894E0
1.162729027E1,-2.968685389E0,-4.236343861E0,1.947901726E0,5.527569391E0
1.163549646E1,-2.138599396E0,-3.968562126E0,2.285628080E0,5.054422662E0
1.164370385E1,-1.062257290E0,-3.334889889E0,1.987250566E0,4.024803838E0
1.165191096E1,7.489557266E-1,-2.469512939E0,1.901640415E0,3.205567829E0
1.166016962E1,3.305089951E0,-1.382206440E0,2.189259291E0,4.198448578E0
1.166840862E1,6.077196121E0,5.004501343E-2,2.420416594E0,6.541653742E0
1.167661588E1,9.067264557E0,2.476111889E0,2.595256805E0,9.750988387E0
1.168482492E1,1.188315773E1,5.226726055E0,2.398947001E0,1.320163057E1
1.169290150E1,1.384396935E1,6.728038311E0,1.597474813E0,1.547494467E1
1.170113904E1,1.422698593E1,5.802451611E0,7.743048668E-2,1.536494611E1
1.170937881E1,1.116401291E1,3.169925690E0,-2.243388176E0,1.182016936E1
1.171758596E1,8.131331444E0,8.375453949E-1,-3.060220003E0,8.728400759E0
1.172579331E1,5.395140171E0,-1.377012730E0,-3.373137236E0,6.510127213E0
1.173400015E1,2.569250107E0,-2.317804813E0,-3.877567291E0,5.196998496E0
1.174220927E1,7.479667664E-3,-1.787910938E0,-2.786806345E0,3.311037764E0
1.175045035E1,-1.320850134E0,3.092346191E-1,5.016012192E-1,1.446331535E0
1.175865842E1,-1.092337608E0,3.038977623E0,2.024738550E0,3.811581383E0
1.176686858E1,-5.024833679E-1,5.326302528E0,-7.871041298E-1,5.407542979E0
1.177507965E1,2.260675430E-1,7.140345573E0,-6.444185257E0,9.620975266E0
1.178331208E1,-4.417033195E-1,9.599117279E0,-7.986669540E0,1.249500079E1
1.179152012E1,-2.929560184E0,1.216210461E1,-2.266242504E0,1.271357410E1
1.179972765E1,-5.067820549E0,1.140205860E1,1.039393425E0,1.252078608E1
1.180793658E1,-1.543485165E0,6.753961563E0,8.244068623E-1,6.976961368E0
1.181614496E1,2.092069149E0,2.618651390E0,-1.465511322E-2,3.351761209E0
1.182437400E1,1.333916664E0,-5.853939056E-2,1.161279202E0,1.769556416E0
1.183261496E1,-7.719974518E-1,-2.054346561E0,-7.977994680E-1,2.335123948E0
1.184082392E1,-2.918462992E0,-3.190362930E0,-3.612372160E0,5.634276749E0
1.184903450E1,-3.446102858E0,-4.121237755E0,-4.874465466E0,7.254008486E0
1.185724412E1,-3.240867138E0,-4.966821671E0,-5.881780624E0,8.352716961E0
1.186545419E1,-2.601876736E0,-5.269336224E0,-5.410638809E0,7.988158681E0
1.187367642E1,-3.130877495E0,-5.094166756E0,-4.947423458E0,7.760794270E0
1.188188581E1,-4.680944920E0,-3.433555603E0,-6.262416840E0,8.539227956E0
1.189009662E1,-5.940489292E0,-1.096572876E0,-8.023282051E0,1.004315389E1
1.189830450E1,-6.725668907E0,6.199655533E-1,-9.331186295E0,1.151911530E1
1.190656354E1,-6.886887550E0,2.054880142E0,-1.032551384E1,1.258046059E1
1.191480315E1,-5.854743958E0,3.159384727E0,-9.677823067E0,1.174393452E1
1.192301035E1,-3.853388071E0,4.326595306E0,-7.242480278E0,9.274780167E0
1.193121758E1,-2.762179375E-1,5.137867928E0,2.781692266E0,5.849084976E0
1.193942554E1,1.012582064E0,5.020642281E0,9.998637199E0,1.123409619E1
1.194768734E1,-2.437753677E-1,4.207702637E0,7.973132610E0,9.018593656E0
1.195592873E1,-1.136475563E0,3.639928818E0,-5.361509323E-2,3.813598443E0
1.196413688E1,-1.211877823E0,1.772087097E0,-3.549062729E0,4.147865329E0
1.197234611E1,-2.640507221E-1,3.784713745E-1,-4.971112251E0,4.992486393E0
1.198055365E1,5.511755943E-1,-8.600406647E-1,-5.257859230E0,5.356169169E0
1.198878073E1,6.111788750E-1,-1.608864784E0,-4.557882309E0,4.871988983E0
1.199698931E1,-8.494861126E-1,-1.579282284E0,-5.029634476E0,5.339754877E0
1.200519792E1,-2.622704506E-1,-2.077428818E0,-4.047341347E0,4.556914335E0
1.201340754E1,4.115185738E-1,-2.428255558E0,-2.591586590E0,3.575205399E0
1.202161461E1,1.271009207E0,-2.570542812E0,-1.001324058E0,3.037400965E0
1.202982265E1,2.139147758E0,-2.559684753E0,5.202096701E-2,3.336262183E0
1.203803585E1,3.094581604E0,-2.407699108E0,8.871426582E-1,4.020009004E0
1.204624223E1,3.512083054E0,-2.261129856E0,1.009282589E0,4.297218513E0
1.205445273E1,3.755138159E0,-2.226145267E0,6.383516192E-1,4.411833874E0
1.206265992E1,3.669957399E0,-2.257796764E0,-1.205386817E-1,4.310540931E0
1.207086804E1,3.488294363E0,-2.346481800E0,-7.869333625E-1,4.277082945E0
1.207908165E1,3.091743708E0,-2.471310139E0,-1.092942238E0,4.106187489E0
1.208728981E1,2.205859661E0,-2.517634869E0,-1.185738325E0,3.551095261E0
1.209550292E1,1.520000458E0,-2.532672405E0,-1.249870420E0,3.207336429E0
1.210371223E1,9.360780716E-1,-2.429935932E0,-1.231846333E0,2.880672869E0
1.211194465E1,6.243584156E-1,-2.131047726E0,-8.725766540E-1,2.385912374E0
1.212015792E1,7.857217789E-1,-1.746493340E0,-3.369675279E-1,1.944516602E0
1.212836604E1,1.151939392E0,-1.308153152E0,6.716243923E-2,1.744345100E0
1.213657969E1,1.629919291E0,-9.219484329E-1,1.164531261E-1,1.876216176E0
1.214478923E1,1.962681770E0,-5.756111145E-1,7.005581260E-2,2.046547264E0
1.215305092E1,2.104609251E0,-2.330131531E-1,7.742372155E-2,2.118884060E0
1.216127419E1,1.971872687E0,1.086950302E-1,-1.330327690E-1,1.979341866E0
1.216948400E1,1.883221030E0,2.409725189E-1,-4.235851765E-1,1.945254124E0
1.217770638E1,1.883899450E0,1.969251633E-1,-8.800877929E-1,2.088638595E0
1.218591331E1,2.199603081E0,4.568481445E-2,-1.332248449E0,2.572008310E0
1.219415211E1,2.909550190E0,-3.927707672E-2,-1.292203784E0,3.183836619E0
1.220236542E1,3.772664547E0,-1.659059525E-1,-9.059642553E-1,3.883464150E0
1.221057131E1,4.637514591E0,-3.128499985E-1,-8.565198183E-1,4.726313881E0
1.221877865E1,5.407933712E0,-7.378444672E-1,-1.314673901E0,5.614136528E0
1.222698611E1,5.941133499E0,-1.267710686E0,-1.926205397E0,6.372944756E0
1.223521292E1,6.067087650E0,-1.655797958E0,-2.144811392E0,6.644654644E0
1.224342577E1,5.790026665E0,-2.032661438E0,-1.797218561E0,6.394225196E0
1.225163338E1,5.348138332E0,-2.259085655E0,-1.261761308E0,5.941219843E0
1.225985334E1,5.124110699E0,-1.982680798E0,-1.065183640E0,5.596619496E0
1.226806088E1,5.031344414E0,-1.272872925E0,-1.186269045E0,5.323707950E0
1.227629427E1,5.345791817E0,-5.421333313E-1,-1.784223795E0,5.661700561E0
1.228451754E1,5.439106941E0,4.889516830E-1,-2.053305626E0,5.834297049E0
1.229272630E1,5.187439919E0,1.715172768E0,-1.984817266E0,5.812989774E0
1.230097254E1,4.757229328E0,2.555104256E0,-1.816404462E0,5.697290041E0
1.230918038E1,4.546594143E0,2.777233124E0,-2.103451252E0,5.727918408E0
1.231741050E1,4.537947178E0,2.428183556E0,-2.649503231E0,5.788687877E0
1.232561881E1,3.978502274E0,1.882481575E0,-2.685862064E0,5.156168369E0
1.233373027E1,2.733076572E0,1.510962486E0,-2.377265453E0,3.924806520E0
1.234196150E1,1.246502399E0,1.254767418E0,-1.701086521E0,2.453956980E0
1.235017061E1,3.597342968E-2,1.121013641E0,-9.672476053E-1,1.481058271E0
1.235841150E1,-6.522177458E-1,1.008306503E0,-3.701818287E-1,1.256624279E0
1.236662088E1,-5.273736715E-1,9.318399429E-1,-3.354878426E-1,1.122052031E0
1.237482992E1,5.537846088E-1,1.563087463E0,-8.275594115E-1,1.853314434E0
1.238305192E1,1.745682478E0,2.805079460E0,-1.542688608E0,3.646336001E0
1.239126169E1,2.572906971E0,4.308068275E0,-1.978622675E0,5.393908623E0
1.239952300E1,2.080942869E0,6.417831421E0,-2.280987740E0,7.121923086E0
1.240773330E1,2.370023966E0,8.522221565E0,-1.871546149E0,9.041457791E0
1.241596134E1,1.269629002E0,1.007440758E1,-8.360868692E-1,1.018845852E1
1.242418357E1,4.406309128E-1,1.075580883E1,1.418445110E-1,1.076576514E1
1.243239350E1,-1.919435143E0,1.030742741E1,1.511059523E0,1.059295010E1
1.244065773E1,-3.028046131E0,8.439035416E0,1.684433460E0,9.122702352E0
1.244886827E1,-3.372599363E0,5.963627815E0,1.101628542E0,6.939226803E0
1.245709627E1,-2.665696144E0,3.565717697E0,1.964030266E-1,4.456327274E0
1.246535077E1,-7.569367886E-1,1.489187241E0,-7.749620676E-1,1.841520607E0
1.247356011E1,4.556627274E-1,4.315233231E-1,-1.904429317E0,2.005166308E0
1.248179373E1,4.712681770E-1,5.883789062E-2,-2.839057684E0,2.878507274E0
1.249000315E1,-2.082824707E-2,-2.548575401E-1,-3.455210686E0,3.464659733E0
1.249821200E1,-5.879840851E-1,-7.899394035E-1,-3.616759777E0,3.748423779E0
1.250643323E1,-1.112578392E0,-1.227067947E0,-2.951083899E0,3.384142816E0
1.251464077E1,-1.412524939E0,-1.544447899E0,-2.449748516E0,3.222082216E0
1.252287015E1,-1.097415209E0,-2.010963440E0,-1.844286203E0,2.941034800E0
1.253107911E1,-3.522820473E-1,-2.212688923E0,-1.736693025E0,2.834818790E0
1.253930607E1,3.060612679E-1,-2.135671139E0,-2.554219246E0,3.343471350E0
1.254755965E1,5.319404602E-1,-1.746086121E0,-3.389697552E0,3.849912582E0
1.255576819E1,2.307438850E-1,-1.405230999E0,-3.847267389E0,4.102363132E0
1.256399800E1,-4.738378525E-2,-1.255403519E0,-4.063217163E0,4.253000933E0
1.257220892E1,-3.994507790E-1,-1.241239071E0,-4.445748806E0,4.633024693E0
1.258043807E1,-9.164962769E-1,-1.312863827E0,-4.634989738E0,4.903744154E0
1.258866111E1,-1.448043585E0,-1.471722603E0,-4.694605827E0,5.128559400E0
1.259687161E1,-1.876775742E0,-1.537807465E0,-4.686998844E0,5.277792829E0
1.260510680E1,-2.402107239E0,-1.607932091E0,-4.336733341E0,5.211796319E0
1.261331615E1,-3.148936510E0,-1.621518612E0,-3.917889357E0,5.281569915E0
1.262154238E1,-4.035677910E0,-1.613202572E0,-3.445562601E0,5.546261837E0
1.262976361E1,-4.922371387E0,-1.730573654E0,-3.119513035E0,6.079143593E0
1.263797304E1,-5.636476040E0,-1.984226227E0,-2.988821983E0,6.681322677E0
1.264623273E1,-6.500304222E0,-2.457221031E0,-3.032067299E0,7.581907562E0
1.265444119E1,-6.965119362E0,-3.049139500E0,-2.962345362E0,8.160001805E0
1.266266692E1,-6.523209572E0,-3.831478596E0,-2.524582863E0,7.975337609E0
1.267088854E1,-5.418873787E0,-4.406399727E0,-1.868194580E0,7.229848039E0
1.267909807E1,-4.563938141E0,-4.894027710E0,-1.288547516E0,6.814792240E0
1.268733754E1,-4.097798347E0,-5.341190338E0,-4.739942551E-1,6.748698843E0
1.269558819E1,-3.600145817E0,-5.555899620E0,4.274835587E-1,6.634139935E0
1.270379611E1,-2.793621778E0,-5.521200180E0,1.218892097E0,6.306637140E0
1.271201534E1,-1.692109346E0,-5.204600334E0,1.838564873E0,5.773336944E0
1.272022292E1,-3.404526711E-1,-4.539494038E0,1.550373793E0,4.809009569E0
1.272845180E1,1.314832687E0,-3.433888435E0,5.899894238E-1,3.724038440E0
1.273666084E1,3.109764099E0,-1.794771671E0,5.870163441E-1,3.638189975E0
1.274488780E1,4.962243080E0,3.439493179E-1,8.321731091E-1,5.043279648E0
1.275311065E1,7.078982830E0,2.066825867E0,1.416117191E0,7.509271268E0
1.276131973E1,8.879590988E0,4.569454193E0,2.211789608E0,1.022834596E1
1.276955611E1,1.068770027E1,6.347302437E0,2.636861563E0,1.270701476E1
1.277776515E1,1.173007202E1,6.358207703E0,2.249051094E0,1.353069199E1
1.278599146E1,1.190692425E1,4.320021629E0,7.068300247E-1,1.268609635E1
1.279421346E1,1.139249611E1,8.039598465E-1,-1.709033251E0,1.154799176E1
1.280242080E1,8.971384048E0,-1.457246780E0,-2.581913710E0,9.448575466E0
1.281062950E1,6.444198608E0,-2.899085045E0,-2.211078882E0,7.404138007E0
1.281883719E1,3.322360516E0,-3.613777637E0,-1.864052773E0,5.250920010E0
1.282706165E1,5.719375610E-2,-3.466947079E0,-2.077878952E0,4.042347599E0
1.283528057E1,-2.921290159E0,-2.109723091E0,-1.218144655E0,3.803780240E0
1.284348773E1,-4.385807991E0,1.026489258E0,9.775407314E-1,4.609184072E0
1.285171338E1,-3.575384855E0,5.058871269E0,1.270799875E0,6.323803263E0
1.285991973E1,-1.521241426E0,8.112615585E0,-2.164568663E0,8.533115762E0
1.286814565E1,-8.159422874E-1,1.010427570E1,-5.289724827E0,1.143430532E1
1.287639953E1,-2.658803225E0,1.298913002E1,-5.364912987E0,1.430276283E1
1.288460846E1,-5.677946091E0,1.155131245E1,-1.813044786E0,1.299842384E1
1.289286942E1,-1.991871357E0,4.298173904E0,-1.221333504E0,4.892188257E0
1.290107757E1,1.664028645E0,1.850093842E0,-1.878867269E0,3.118009103E0
1.290930346E1,2.908793926E0,2.144088745E-1,5.875146389E-1,2.975269185E0
1.291752476E1,1.615812302E0,-1.351706505E0,1.872310400E0,2.818422627E0
1.292573342E1,-1.180241346E0,-2.414556980E0,-1.146032095E0,2.921719461E0
1.293399796E1,-2.984103680E0,-3.309071064E0,-3.172853231E0,5.470084433E0
1.294220611E1,-3.065108299E0,-3.657380581E0,-4.482663631E0,6.547182206E0
1.295043184E1,-2.693406343E0,-4.191551208E0,-5.827813148E0,7.667264529E0
1.295865169E1,-2.592655182E0,-4.251787663E0,-6.069236755E0,7.850808494E0
1.296685861E1,-2.744980335E0,-3.115226746E0,-5.578956604E0,6.954445449E0
1.297508419E1,-3.336436749E0,-9.905538559E-1,-5.886365891E0,6.838297340E0
1.298329088E1,-3.114372730E0,1.200546265E0,-6.561358452E0,7.361525220E0
1.299151311E1,-2.889563799E0,2.704378128E0,-7.090800285E0,8.120510372E0
1.299973069E1,-2.320673704E0,4.432419777E0,-6.799258709E0,8.441669889E0
1.300793623E1,-2.104532719E0,5.429303169E0,-6.387883663E0,8.643578458E0
1.301616619E1,-1.698088169E0,5.855173111E0,-4.329909325E0,7.477611273E0
1.302437419E1,-5.835490227E-1,5.456480026E0,-1.176702142E0,5.612337451E0
1.303258184E1,1.458863497E0,4.633891106E0,3.030476809E0,5.725820393E0
1.304080246E1,2.181787014E0,3.002424240E0,3.949202538E0,5.419496893E0
1.304901042E1,1.359541416E-1,1.718907356E0,8.436965942E-1,1.919622351E0
1.305723834E1,-1.708864093E0,7.926702499E-1,-2.545030832E0,3.166342456E0
1.306544634E1,-2.195205688E0,-6.572723389E-2,-4.173381805E0,4.715969018E0
1.307367338E1,-2.052836418E0,-7.757158279E-1,-4.168848515E0,4.711175049E0
1.308189465E1,-1.662758827E0,-1.299229145E0,-3.375102758E0,3.980462526E0
1.309010322E1,-1.043569565E0,-1.733645916E0,-2.334018707E0,3.089046604E0
1.309835557E1,-2.597937584E-1,-2.030600071E0,-1.619146347E0,2.610069796E0
1.310656361E1,3.720264435E-1,-2.122811317E0,-1.233772278E0,2.483329539E0
1.311479080E1,7.500965595E-1,-2.133727551E0,-1.078520298E0,2.505722279E0
1.312301269E1,9.740927219E-1,-1.959213257E0,-1.120429158E0,2.458197452E0
1.313122053E1,7.466087341E-1,-1.474256516E0,-1.241018653E0,2.066635955E0
1.313946165E1,3.705208302E-1,-1.020648956E0,-1.239865661E0,1.648113113E0
1.314766911E1,2.321391106E-1,-8.508043289E-1,-1.213770509E0,1.500331770E0
1.315589284E1,3.291285038E-1,-9.313344955E-1,-1.167708158E0,1.529461297E0
1.316411053E1,5.304756165E-1,-1.176353455E0,-1.166691303E0,1.739649513E0
1.317231842E1,6.949696541E-1,-1.545344830E0,-1.184273243E0,2.067263064E0
1.318055842E1,9.484586716E-1,-1.802421093E0,-1.151699543E0,2.339809284E0
1.318876738E1,1.258358955E0,-1.918570995E0,-1.045584559E0,2.521433917E0
1.319699296E1,1.610692501E0,-1.880263805E0,-6.602367163E-1,2.562349475E0
1.320521315E1,2.014952183E0,-1.783221722E0,-3.647035360E-2,2.690955610E0
1.321342092E1,2.148037672E0,-1.679366589E0,4.493740201E-1,2.763381079E0
1.322164761E1,2.059193373E0,-1.583031654E0,6.179495454E-1,2.669855465E0
1.322985399E1,2.100759268E0,-1.550404549E0,4.733338356E-1,2.653486138E0
1.323806042E1,2.044854164E0,-1.495509148E0,7.542234659E-2,2.534494958E0
1.324629619E1,1.962619066E0,-1.494719505E0,-2.984617949E-1,2.484982785E0
1.325450280E1,1.862373471E0,-1.535441399E0,-5.884706378E-1,2.484414001E0
1.326273115E1,1.761069655E0,-1.512907982E0,-6.515873075E-1,2.411394392E0
1.327093861E1,1.596581459E0,-1.419437408E0,-4.892010093E-1,2.191618703E0
1.327916434E1,1.587807298E0,-1.236254692E0,-3.173351884E-1,2.037193977E0
1.328738557E1,1.776097417E0,-9.250173569E-1,-2.814648151E-1,2.022226888E0
1.329559323E1,2.243078470E0,-7.121076584E-1,-6.672884226E-1,2.446175010E0
1.330382084E1,3.114893913E0,-6.358966827E-1,-1.286624908E0,3.429625685E0
1.331202742E1,4.060466290E0,-5.986337662E-1,-1.920113564E0,4.531289548E0
1.332025261E1,4.350149632E0,-5.348596573E-1,-2.022648573E0,4.827109271E0
1.332847526E1,4.625924110E0,-8.010158539E-1,-1.883430719E0,5.058469289E0
1.333668238E1,4.889980793E0,-9.921312332E-1,-1.606590033E0,5.241885927E0
1.334490199E1,4.954052925E0,-1.079170227E0,-1.362031937E0,5.249988549E0
1.335311042E1,4.974630356E0,-1.056774139E0,-1.093750834E0,5.201923649E0
1.336133569E1,5.190932274E0,-8.102865219E-1,-9.581494927E-1,5.340448724E0
1.336953003E1,5.318176746E0,-5.697278976E-1,-8.379799724E-1,5.413852992E0
1.337767692E1,5.084782600E0,-5.063629150E-2,-9.747580886E-1,5.177618319E0
1.338595569E1,4.911620140E0,3.461761475E-1,-1.220328093E0,5.072775471E0
1.339416242E1,5.098339558E0,8.190612793E-1,-1.376404524E0,5.344007582E0
1.340238676E1,5.493131638E0,1.530543327E0,-1.297055840E0,5.848026327E0
1.341064007E1,5.475609303E0,2.059000015E0,-1.078454614E0,5.948516004E0
1.341884761E1,5.238920689E0,2.347755432E0,-8.506324887E-1,5.803604154E0
1.342711134E1,4.690197468E0,2.206259727E0,-9.023995399E-1,5.261165194E0
1.343531953E1,4.004425526E0,1.456231117E0,-1.036202669E0,4.385173751E0
1.344354715E1,3.204199791E0,4.008464813E-1,-9.405036569E-1,3.363349719E0
1.345180319E1,1.992895484E0,-4.454832077E-1,-8.026633859E-1,2.194164125E0
1.346001184E1,1.195436239E0,-9.849147797E-1,-8.577072620E-1,1.770532878E0
1.346824015E1,8.550009727E-1,-1.313463211E0,-1.054405689E0,1.888910699E0
1.347645053E1,-9.947454929E-2,-1.248390198E0,-7.518196702E-1,1.460686855E0
1.348467772E1,-8.972727060E-1,-8.476657867E-1,-2.972279191E-1,1.269637756E0
1.349289926E1,-6.289757490E-1,-3.623065948E-1,-2.925909162E-1,7.826148515E-1
1.350110861E1,1.724901199E-1,5.936679840E-1,-1.150757670E0,1.306306906E0
1.350925496E1,5.086255074E-2,2.410113335E0,-2.080521584E0,3.184305787E0
1.351746595E1,5.760109425E-1,4.690004349E0,-1.558927774E0,4.975759761E0
1.352574342E1,1.601485014E0,7.246723175E0,-1.220034361E-1,7.422576094E0
1.353402168E1,2.432776213E0,9.668093681E0,1.430542231E0,1.007158809E1
1.354234822E1,3.162961960E0,1.173666954E1,2.699782848E0,1.245160904E1
1.355059903E1,2.866979837E0,1.129657269E1,2.049495220E0,1.183353533E1
