"Time (s)","Linear Acceleration x (m/s^2)","Linear Acceleration y (m/s^2)","Linear Acceleration z (m/s^2)","Absolute acceleration (m/s^2)"
1.730690300E-2,1.059293747E-1,-1.799106598E-2,6.806707382E-2,1.271921280E-1
2.551274900E-2,1.199779510E-1,3.934085369E-2,4.937362671E-2,1.355734728E-1
3.371632600E-2,9.975814819E-2,6.065511703E-2,6.882905960E-2,1.355292249E-1
4.194405700E-2,1.052236557E-1,6.652021408E-2,1.324501038E-1,1.817690474E-1
5.014798000E-2,6.473445892E-2,5.716371536E-2,2.028799057E-1,2.204960241E-1
5.835794100E-2,3.712081909E-2,5.314302444E-2,1.883654594E-1,1.992076368E-1
6.656324900E-2,2.585601807E-2,2.616012096E-2,1.485686302E-1,1.530539888E-1
7.476882600E-2,1.437854767E-2,2.003443241E-2,1.060433388E-1,1.088729113E-1
8.299751800E-2,3.456497192E-2,5.091190338E-3,1.012110710E-1,1.070716508E-1
9.120444100E-2,4.186344147E-2,-1.842916012E-2,1.059298515E-1,1.153833399E-1
9.944455700E-2,7.057476044E-2,-1.986765862E-2,9.047555923E-2,1.164531987E-1
1.076502870E-1,7.072544098E-2,-4.568171501E-2,9.037303925E-2,1.235159638E-1
1.158567490E-1,6.511497498E-2,-2.751338482E-2,7.028341293E-2,9.968301984E-2
1.240870950E-1,6.768894196E-2,-3.409075737E-2,4.861164093E-2,9.003923720E-2
1.322924410E-1,4.629802704E-2,-3.345739841E-2,4.374408722E-2,7.194755022E-2
1.405272870E-1,4.657840729E-2,-4.715335369E-2,5.784797668E-2,8.797371878E-2
1.487327100E-1,4.568958282E-2,-4.337441921E-2,6.840658188E-2,9.299644437E-2
1.569385560E-1,9.388828278E-2,-7.349407673E-2,9.691143036E-2,1.536496479E-1
1.651690950E-1,1.061086655E-1,-5.966341496E-2,9.935474396E-2,1.571309553E-1
1.733751330E-1,1.109018326E-1,-4.491019249E-2,7.789611816E-2,1.427723611E-1
1.816452870E-1,1.180019379E-1,-5.645215511E-2,4.939842224E-2,1.398267044E-1
1.898508250E-1,7.203578949E-2,-6.145668030E-2,3.216266632E-2,1.000025781E-1
1.980552870E-1,7.644081116E-2,-5.630993843E-2,4.001855850E-2,1.030315088E-1
2.062826720E-1,5.874252319E-2,-4.464960098E-2,4.559612274E-2,8.673682787E-2
2.144868250E-1,3.685569763E-2,-4.876542091E-2,6.304168701E-2,8.781038108E-2
2.226995180E-1,7.182884216E-2,-6.152415276E-2,8.044528961E-2,1.241613811E-1
2.309062100E-1,6.892681122E-2,-5.854237080E-2,9.572935104E-2,1.316898748E-1
2.391113250E-1,9.149169922E-2,-2.759385109E-2,7.682609558E-2,1.226148466E-1
2.473398640E-1,1.004161835E-1,-2.020943165E-2,5.871009827E-2,1.180622999E-1
2.555430560E-1,9.254932404E-2,-1.045596600E-2,5.020904541E-2,1.058095121E-1
2.637887870E-1,1.324787140E-1,-7.831931114E-3,5.143308640E-2,1.423281813E-1
2.719935560E-1,1.078290939E-1,-2.913725376E-2,7.650709152E-2,1.353862183E-1
2.801974020E-1,1.118535995E-1,-7.182598114E-3,7.776355743E-2,1.364184310E-1
2.884247100E-1,1.229410172E-1,-1.177990437E-2,6.478357315E-2,1.394638706E-1
2.966294400E-1,1.077671051E-1,1.676082611E-4,3.966045380E-2,1.148334822E-1
3.048645940E-1,9.023189545E-2,-2.872121334E-2,2.642583847E-2,9.831087422E-2
3.130678630E-1,1.157360077E-1,-1.431655884E-2,6.145477295E-3,1.167799393E-1
3.212710940E-1,1.246147156E-1,-1.882076263E-2,2.486705780E-3,1.260524976E-1
3.294998250E-1,1.168956757E-1,-2.806627750E-2,1.056766510E-2,1.206813592E-1
3.377040940E-1,1.499557495E-1,-2.283644676E-2,2.574110031E-2,1.538532884E-1
3.459398250E-1,1.687564850E-1,-8.112549782E-3,4.073381424E-2,1.737924288E-1
3.541447090E-1,1.826524734E-1,1.152217388E-2,3.678035736E-2,1.866748008E-1
3.623491710E-1,1.821432114E-1,3.323137760E-2,4.477453232E-2,1.904868306E-1
3.705762480E-1,1.743717194E-1,1.649987698E-2,3.609752655E-2,1.788316915E-1
3.787804020E-1,1.211881638E-1,1.192605495E-2,3.932237625E-2,1.279650386E-1
3.869922090E-1,9.221649170E-2,1.928937435E-2,1.339721680E-2,9.516011098E-2
3.951987090E-1,9.674453735E-2,1.006710529E-2,9.097576141E-3,9.769144286E-2
4.034049020E-1,9.193611145E-2,3.200745583E-2,4.442214966E-3,9.744977727E-2
4.116366710E-1,1.231002808E-1,2.753198147E-2,3.319406509E-2,1.304359425E-1
4.198451710E-1,1.329269409E-1,1.598787308E-2,2.814006805E-2,1.368102596E-1
4.281175940E-1,1.260461807E-1,2.813374996E-2,4.927730560E-2,1.382295208E-1
4.363262860E-1,1.406688690E-1,3.794801235E-2,2.979660034E-2,1.487132131E-1
4.445344010E-1,1.169710159E-1,1.894640923E-2,4.622650146E-2,1.271930597E-1
4.527650170E-1,1.099681854E-1,1.898765564E-2,4.835748672E-2,1.216222817E-1
4.609723630E-1,1.270523071E-1,2.385640144E-2,4.070615768E-2,1.355300996E-1
4.692123630E-1,1.058473587E-1,4.317772388E-2,5.459547043E-2,1.266832450E-1
4.774187860E-1,1.206598282E-1,3.604984283E-2,5.393266678E-2,1.369931307E-1
4.856255170E-1,1.137781143E-1,3.602945805E-2,4.389715195E-2,1.271634424E-1
4.938554010E-1,1.213216782E-1,5.038988590E-2,6.010627747E-2,1.444674869E-1
5.020617860E-1,1.075954437E-1,4.326665401E-2,7.831192017E-2,1.399340548E-1
5.103120930E-1,1.297063828E-1,2.374196053E-2,8.215236664E-2,1.553590608E-1
5.185191320E-1,1.375007629E-1,4.517555237E-3,8.838891983E-2,1.635220758E-1
5.267259010E-1,1.380701065E-1,1.149642467E-2,5.156278610E-2,1.478318065E-1
5.349579010E-1,1.265001297E-1,6.403684616E-3,6.045484543E-2,1.403498426E-1
5.431645930E-1,1.220626831E-1,1.086342335E-2,4.786872864E-2,1.315626381E-1
5.513782860E-1,1.055202484E-1,3.170597553E-2,4.974842072E-2,1.208912614E-1
5.595857470E-1,7.466030121E-2,2.405285835E-2,4.683303833E-2,9.135663113E-2
5.677920160E-1,9.173202515E-2,1.650512218E-2,6.063032150E-2,1.111900148E-1
5.760209780E-1,9.934616089E-2,2.333295345E-2,5.509853363E-2,1.159738540E-1
5.842266320E-1,1.165685654E-1,8.732795715E-3,3.997373581E-2,1.235410527E-1
5.924647090E-1,1.290483475E-1,6.024241447E-3,4.630565643E-2,1.372369531E-1
6.006691700E-1,1.533164978E-1,-6.043910980E-3,3.142404556E-2,1.566203946E-1
6.088742080E-1,1.463432312E-1,-6.217122078E-3,4.063701630E-2,1.520077663E-1
6.171029010E-1,1.319971085E-1,7.838010788E-3,3.095054626E-2,1.358035617E-1
6.253084780E-1,1.081342697E-1,2.433931828E-2,3.555154800E-2,1.164016120E-1
6.335447080E-1,7.711315155E-2,4.806971550E-2,3.773689270E-2,9.839313371E-2
6.417502470E-1,7.736587524E-2,5.267024040E-2,6.603765488E-2,1.145452083E-1
6.499566310E-1,4.648971558E-2,4.535758495E-2,8.957052231E-2,1.106412339E-1
6.581864010E-1,3.958702087E-2,1.664185524E-2,1.011233330E-1,1.098636065E-1
6.663907080E-1,5.185794830E-2,4.711151123E-3,7.674074173E-2,9.273932924E-2
6.746597850E-1,7.367992401E-2,-9.521365166E-3,7.636022568E-2,1.065376537E-1
6.828642080E-1,9.536075592E-2,-2.618551254E-2,6.182146072E-2,1.166243879E-1
6.910683620E-1,8.815574646E-2,3.248453140E-4,5.950546265E-2,1.063599607E-1
6.992963240E-1,7.371330261E-2,3.154432774E-2,7.879829407E-2,1.124182669E-1
7.075001700E-1,7.363986969E-2,2.211034298E-2,9.091758728E-2,1.190701699E-1
7.157099390E-1,2.573776245E-2,3.884291649E-2,9.572982788E-2,1.064678568E-1
7.239130930E-1,4.015350342E-2,1.507246494E-2,1.004838943E-1,1.092542725E-1
7.321187080E-1,7.606220245E-2,-1.824891567E-2,9.336042404E-2,1.217975794E-1
7.403456700E-1,1.167497635E-1,-2.275228500E-2,8.627080917E-2,1.469381716E-1
7.485504000E-1,1.237545013E-1,-1.046800613E-2,6.507492065E-2,1.402123427E-1
7.567964770E-1,1.449232101E-1,-1.273250580E-2,7.286310196E-2,1.627079751E-1
7.650012080E-1,1.325635910E-1,1.871514320E-2,6.156253815E-2,1.473543632E-1
7.732044390E-1,9.603023529E-2,3.059959412E-2,7.444477081E-2,1.253002999E-1
7.814329390E-1,1.193456650E-1,2.099823952E-2,6.102037430E-2,1.356753474E-1
7.896367080E-1,5.664825439E-2,1.397526264E-2,7.131624222E-2,9.214303607E-2
7.978699000E-1,5.861186981E-2,1.401722431E-2,5.760812759E-2,8.336984002E-2
8.060746690E-1,6.547451019E-2,-2.657389641E-2,5.572843552E-2,8.999301073E-2
8.142802460E-1,1.059112549E-1,-2.406132221E-2,4.418516159E-2,1.172538683E-1
8.225091310E-1,1.367835999E-1,-3.587079048E-2,2.066850662E-2,1.429113500E-1
8.307148610E-1,1.534118652E-1,-2.614808083E-2,2.090358734E-2,1.570219172E-1
8.389517850E-1,1.461162567E-1,-4.623413086E-3,6.707191467E-3,1.463431681E-1
8.471570150E-1,1.843318939E-1,-2.369046211E-2,1.644372940E-2,1.865740640E-1
8.553628230E-1,1.483850479E-1,3.466606140E-4,2.370071411E-2,1.502663185E-1
8.635920150E-1,1.339025497E-1,5.102634430E-3,3.584051132E-2,1.387100283E-1
8.717967840E-1,1.266994476E-1,-9.271264076E-3,2.390003204E-2,1.292668476E-1
8.800089000E-1,1.075267792E-1,-1.651215553E-2,1.672887802E-2,1.100659570E-1
8.882148230E-1,9.089374542E-2,-6.830692291E-3,6.987571716E-3,9.141748997E-2
8.964204000E-1,9.597969055E-2,7.597804070E-3,1.613283157E-2,9.762220997E-2
9.046492840E-1,9.643840790E-2,-1.369750500E-2,2.747678757E-2,1.012075196E-1
9.128553610E-1,1.017580032E-1,-2.515029907E-2,2.441787720E-2,1.076264907E-1
9.211239770E-1,9.993362427E-2,-1.511430740E-2,5.958986282E-2,1.173291238E-1
9.293295150E-1,1.171836853E-1,-3.162181377E-2,9.003973007E-2,1.511261334E-1
9.375358610E-1,1.247072220E-1,-2.186512947E-2,1.015443802E-1,1.622998344E-1
9.457649000E-1,1.320610046E-1,6.774902344E-3,9.168434143E-2,1.609099957E-1
9.539714760E-1,1.081838608E-1,3.880381584E-3,8.666706085E-2,1.386722198E-1
9.622090530E-1,1.106119156E-1,1.078486443E-2,5.542182922E-2,1.241889219E-1
9.704140920E-1,9.138774872E-2,2.487611771E-2,4.587793350E-2,1.052393778E-1
9.786200530E-1,8.175945282E-2,7.974505424E-3,4.831171036E-2,9.530069370E-2
9.868486690E-1,7.459640503E-2,4.111850262E-2,4.579019547E-2,9.670624024E-2
9.950543610E-1,7.482337952E-2,3.851461411E-2,5.736255646E-2,1.018448649E-1
1.003301515E0,7.725334167E-2,1.908814907E-2,3.090476990E-2,8.536709575E-2
1.011507130E0,9.419918060E-2,5.247163773E-2,5.931568146E-2,1.230654641E-1
1.019712168E0,1.065025330E-1,1.160967350E-2,8.032083511E-2,1.338992554E-1
1.027940092E0,1.139345169E-1,2.590024471E-2,9.189605713E-2,1.486498642E-1
1.036143591E0,9.011268616E-2,4.502165318E-2,7.733964920E-2,1.269986882E-1
1.044353630E0,6.383895874E-2,3.052341938E-2,6.284618378E-2,9.464002641E-2
1.052558284E0,7.339382172E-2,5.413520336E-2,8.434200287E-2,1.242209594E-1
1.060763361E0,6.618022919E-2,7.524144650E-2,9.145784378E-2,1.356673697E-1
1.068993014E0,4.718399048E-2,6.042766571E-2,7.434082031E-2,1.067913353E-1
1.077199399E0,7.602596283E-2,3.854489326E-2,7.169198990E-2,1.113795189E-1
1.085437553E0,7.855796814E-2,3.340804577E-2,7.857608795E-2,1.160243659E-1
1.093643360E0,9.791469574E-2,1.408660412E-2,5.907249451E-2,1.152183999E-1
1.101849399E0,1.003942490E-1,1.885914803E-2,6.372690201E-2,1.203984665E-1
1.110078745E0,1.242303848E-1,3.292322159E-2,8.056688309E-2,1.516843752E-1
1.118285091E0,1.050214767E-1,6.338119507E-3,8.298206329E-2,1.339988999E-1
1.126520514E0,9.056186676E-2,1.573431492E-2,6.152868271E-2,1.106110265E-1
1.134724591E0,8.326625824E-2,2.040457726E-2,5.688047409E-2,1.028834528E-1
1.142928091E0,8.301258087E-2,1.081120968E-2,5.965280533E-2,1.027931322E-1
1.151156399E0,8.526897430E-2,2.980089188E-2,5.742216110E-2,1.070336196E-1
1.159359322E0,7.558441162E-2,2.246367931E-2,5.993747711E-2,9.904605661E-2
1.167623899E0,7.298851013E-2,2.224838734E-2,3.863811493E-2,8.552904346E-2
1.175826322E0,9.672355652E-2,-1.587629318E-2,1.984548569E-2,1.000067316E-1
1.184029129E0,1.085872650E-1,-1.352834702E-2,3.914642334E-2,1.162181258E-1
1.192254245E0,1.156110764E-1,-1.817429066E-2,3.224229813E-2,1.213910689E-1
1.200455629E0,1.226873398E-1,-1.558744907E-2,5.160665512E-2,1.340089503E-1
1.208665283E0,1.178503036E-1,-8.190393448E-3,5.173587799E-2,1.289665759E-1
1.216869129E0,1.320724487E-1,-3.410339355E-3,8.307313919E-2,1.560637965E-1
1.225071860E0,1.318883896E-1,-1.285767555E-2,7.380867004E-2,1.516825201E-1
1.233297168E0,1.125345230E-1,6.318449974E-3,9.805822372E-2,1.493966429E-1
1.241498321E0,1.242170334E-1,-1.042091846E-2,5.779743195E-2,1.374009100E-1
1.249741745E0,1.287870407E-1,-1.286494732E-2,1.980733871E-2,1.309348670E-1
1.257944129E0,1.213388443E-1,-1.757884026E-2,2.980232239E-2,1.261757076E-1
1.266147552E0,1.091594696E-1,3.874540329E-3,2.291202545E-2,1.116053887E-1
1.274374821E0,1.568498611E-1,-1.748692989E-2,2.325105667E-2,1.595251808E-1
1.282579975E0,1.352729797E-1,-1.027095318E-2,4.006385803E-2,1.414545307E-1
1.290815360E0,1.376504898E-1,1.923680305E-3,4.733037949E-2,1.455730837E-1
1.299019167E0,1.230287552E-1,4.247522354E-2,3.091907501E-2,1.337767110E-1
1.307222090E0,1.134023666E-1,3.516387939E-2,3.575038910E-2,1.239946995E-1
1.315449090E0,7.992172241E-2,-6.817579269E-4,1.176738739E-2,8.078624829E-2
1.323651783E0,9.927368164E-2,4.202485085E-3,2.825212479E-2,1.033010518E-1
1.331887052E0,1.019821167E-1,2.027630806E-3,3.980588913E-2,1.094941652E-1
1.340090513E0,7.836341858E-2,9.462833405E-3,4.656648636E-2,9.164501208E-2
1.348295052E0,9.091567993E-2,1.937270164E-2,7.689952850E-2,1.206420321E-1
1.356522167E0,1.417436600E-1,1.242232323E-2,4.740238190E-2,1.499752148E-1
1.364726321E0,1.326141357E-1,2.002549171E-2,6.359577179E-2,1.484316392E-1
1.372937283E0,1.185607910E-1,4.641878605E-2,6.074810028E-2,1.410733729E-1
1.381140975E0,9.501743317E-2,3.455591202E-2,6.735610962E-2,1.214877326E-1
1.389344013E0,9.775924683E-2,2.747225761E-2,8.601236343E-2,1.330778792E-1
1.397571052E0,8.136463165E-2,1.329290867E-2,9.987592697E-2,1.295071639E-1
1.405774629E0,5.774879456E-2,1.315617561E-2,1.017427444E-1,1.177267781E-1
1.414039513E0,4.615402222E-2,1.559114456E-2,9.879398346E-2,1.101522979E-1
1.422241244E0,3.695011139E-2,1.326417923E-2,1.197957993E-1,1.260645973E-1
1.430442436E0,4.444122314E-2,1.426577568E-3,9.781837463E-2,1.074499505E-1
1.438667321E0,9.253215790E-2,-1.273858547E-2,9.516477585E-2,1.333446901E-1
1.446868513E0,9.737014771E-2,-9.987831116E-3,9.039402008E-2,1.332358109E-1
1.455102667E0,9.003067017E-2,-4.972457886E-3,1.002664566E-1,1.348466137E-1
1.463305090E0,1.423759460E-1,-2.156507969E-2,7.686233521E-2,1.632292291E-1
1.471507090E0,1.060619354E-1,1.212823391E-2,6.793403625E-2,1.265356135E-1
1.479733051E0,1.271438599E-1,7.475495338E-3,4.712533951E-2,1.358022156E-1
1.487935051E0,1.264171600E-1,1.696383953E-2,5.298566818E-2,1.381178889E-1
1.496178013E0,1.017961502E-1,2.160835266E-2,2.524280548E-2,1.070821009E-1
1.504380397E0,8.913612366E-2,2.386617661E-2,4.061031342E-2,1.008168661E-1
1.512580936E0,6.001758575E-2,1.879143715E-2,5.787992477E-2,8.547113198E-2
1.520804397E0,8.125400543E-2,-2.679538727E-2,4.395961761E-2,9.619071763E-2
1.529006320E0,9.047412872E-2,-1.252198219E-2,2.771472931E-2,9.544880422E-2
1.537219166E0,1.092100143E-1,-2.727675438E-2,2.345466614E-2,1.149824766E-1
1.545421551E0,1.376056671E-1,-2.510118484E-2,1.911401749E-2,1.411762543E-1
1.553623513E0,1.589069366E-1,-2.515685558E-2,3.383541107E-2,1.644053434E-1
1.561849166E0,1.490201950E-1,-1.559031010E-2,4.387760162E-2,1.561259755E-1
1.570053128E0,1.438407898E-1,-6.160974503E-3,5.640029907E-2,1.546257551E-1
1.578288397E0,1.266050339E-1,-3.919124603E-3,4.271697998E-2,1.336747340E-1
1.586491474E0,1.261634827E-1,-6.413340569E-3,3.617477417E-2,1.314038416E-1
1.594696551E0,1.209964752E-1,-2.796447277E-2,3.674411774E-2,1.295078721E-1
1.602924666E0,1.158590317E-1,-3.744184971E-2,3.250885010E-2,1.260239369E-1
1.611126974E0,8.928394318E-2,-3.029239178E-2,4.004573822E-2,1.024349191E-1
1.619360820E0,7.487297058E-2,-4.205751419E-2,2.101373672E-2,8.841025594E-2
1.627564243E0,7.244777679E-2,-3.707492352E-2,1.871633530E-2,8.350767344E-2
1.635766935E0,6.534481049E-2,-3.906810284E-2,2.109622955E-2,7.900197351E-2
1.643992705E0,8.689785004E-2,-2.152180672E-2,5.002450943E-2,1.025518213E-1
1.652195589E0,8.915710449E-2,-4.267573357E-3,7.190561295E-2,1.146194514E-1
1.660462974E0,1.298570633E-1,1.987349987E-2,9.111404419E-2,1.598736436E-1
1.668668589E0,1.009626389E-1,4.388391972E-2,1.105351448E-1,1.560040740E-1
1.676872666E0,1.056118011E-1,3.432357311E-2,9.398794174E-2,1.454843408E-1
1.685101820E0,7.431125641E-2,6.522142887E-2,8.701372147E-2,1.317094732E-1
1.693305589E0,8.822441101E-2,5.515444279E-2,7.080698013E-2,1.258538346E-1
1.701515820E0,7.576847076E-2,4.753637314E-2,9.057998657E-2,1.273000467E-1
1.709719474E0,9.436988831E-2,7.316529751E-2,6.729030609E-2,1.370650279E-1
1.717923550E0,7.455539703E-2,6.043124199E-2,6.569576263E-2,1.163029469E-1
1.726151743E0,1.124238968E-1,7.163798809E-2,4.700565338E-2,1.413529814E-1
1.734354589E0,1.193790436E-1,3.257787228E-2,3.278636932E-2,1.280141391E-1
1.742598666E0,1.359930038E-1,4.143488407E-2,2.084779739E-2,1.436856895E-1
1.750803089E0,1.480026245E-1,3.585398197E-2,3.822803497E-3,1.523315421E-1
1.759008550E0,1.597766876E-1,3.289723396E-2,6.367206573E-3,1.632524402E-1
1.767238127E0,1.573019028E-1,3.929066658E-2,1.825523376E-2,1.631591207E-1
1.775443512E0,1.405200958E-1,2.902305126E-2,2.529287338E-2,1.456981959E-1
1.783679473E0,1.454248428E-1,2.580976486E-2,3.926706314E-2,1.528281097E-1
1.791884358E0,1.623401642E-1,1.316809654E-2,2.927732468E-2,1.654838041E-1
1.800088973E0,1.554288864E-1,-1.845836639E-3,2.869939804E-2,1.580670785E-1
1.808316973E0,1.197566986E-1,-1.179349422E-2,3.063011169E-2,1.241730933E-1
1.816520127E0,1.081790924E-1,-1.920938492E-2,3.715944290E-2,1.159850883E-1
1.824757665E0,9.190368652E-2,-2.603530884E-4,5.074071884E-2,1.049808360E-1
1.832962627E0,1.259994507E-1,-2.892100811E-2,2.833652496E-2,1.323451734E-1
1.841167588E0,1.385965347E-1,2.190828323E-3,6.330013275E-2,1.523834176E-1
1.849395742E0,1.391820908E-1,-5.124568939E-3,6.477785110E-2,1.536036640E-1
1.857598973E0,1.181726456E-1,-2.688717842E-2,7.587909698E-2,1.429871738E-1
1.865809165E0,8.992576599E-2,-1.986575127E-2,7.749843597E-2,1.203631964E-1
1.874014742E0,9.064483643E-2,-2.480244637E-2,6.919431686E-2,1.167026187E-1
1.882219819E0,8.397579193E-2,-2.970540524E-2,7.078218460E-2,1.137737333E-1
1.890444434E0,5.079936981E-2,-1.076138020E-2,6.781864166E-2,8.541517098E-2
1.898649781E0,3.926944733E-2,-2.744424343E-2,8.871984482E-2,1.008289981E-1
1.906919473E0,5.764007568E-3,-3.720247746E-2,8.386373520E-2,9.192591688E-2
1.915123511E0,2.495861053E-2,-4.924046993E-2,7.899713516E-2,9.637480730E-2
1.923326780E0,6.099128723E-2,-3.247606754E-2,7.881689072E-2,1.048176242E-1
1.931555588E0,9.205722809E-2,-6.108295918E-2,9.569883347E-2,1.461640444E-1
1.939758011E0,1.253938675E-1,-3.712117672E-2,9.118986130E-2,1.594277095E-1
1.947991434E0,1.276741028E-1,-4.904019833E-2,9.616327286E-2,1.671914849E-1
1.956194011E0,1.275653839E-1,-2.755808830E-2,7.476282120E-2,1.504056343E-1
1.964396473E0,1.105127335E-1,-1.346635818E-2,7.992219925E-2,1.370473093E-1
1.972624473E0,1.150569916E-1,5.473256111E-3,9.699440002E-2,1.505854624E-1
1.980828934E0,1.027431488E-1,9.748697281E-3,7.582998276E-2,1.280678649E-1
1.989073396E0,1.095705032E-1,1.627802849E-2,7.859134674E-2,1.358207244E-1
1.997276857E0,1.019906998E-1,8.307814598E-3,5.504560471E-2,1.161944113E-1
2.005479780E0,7.764816284E-2,1.224994659E-2,5.064249039E-2,9.350914510E-2
2.013708165E0,7.944488525E-2,2.326500416E-2,3.693103790E-2,9.064574878E-2
2.021910934E0,4.519271851E-2,-1.112151146E-2,2.584171295E-2,5.323404880E-2
2.030119472E0,4.461479187E-2,2.403855324E-3,6.241226196E-2,7.675642395E-2
2.038323242E0,4.864692688E-2,1.541376114E-3,5.135965347E-2,7.075813268E-2
2.046527703E0,7.923126221E-2,8.034586906E-3,6.397008896E-2,1.021485182E-1
2.054756511E0,1.098203659E-1,-9.327769279E-3,5.744171143E-2,1.242862432E-1
2.062960703E0,1.021614075E-1,1.173067093E-2,6.521844864E-2,1.217703078E-1
2.071197741E0,1.209545135E-1,3.741145134E-3,8.710479736E-2,1.491014294E-1
2.079403357E0,1.614704132E-1,1.498031616E-2,7.521963120E-2,1.787598868E-1
2.087607164E0,1.709394455E-1,1.905977726E-2,8.478116989E-2,1.917587440E-1
2.095834126E0,1.707410812E-1,1.821327209E-2,7.767820358E-2,1.884625783E-1
2.104038087E0,1.678733826E-1,1.717638969E-2,4.939699173E-2,1.758310659E-1
2.112273549E0,1.385202408E-1,3.757274151E-2,4.525613785E-2,1.504914816E-1
2.120477357E0,9.936428070E-2,7.458972931E-2,5.099678040E-2,1.343039821E-1
2.128682549E0,9.138393402E-2,6.357026100E-2,3.746414185E-2,1.174553677E-1
2.136909741E0,7.645320892E-2,8.383715153E-2,1.405143738E-2,1.143293664E-1
2.145112780E0,8.294868469E-2,9.206664562E-2,9.959220886E-3,1.243219112E-1
2.153379010E0,1.040439606E-1,5.735194683E-2,7.942676544E-3,1.190692137E-1
2.161583933E0,1.253395081E-1,5.396699905E-2,4.637765884E-2,1.441295130E-1
2.169789472E0,1.323432922E-1,4.325163364E-2,2.959632874E-2,1.423425217E-1
2.178018818E0,1.536026001E-1,3.487896919E-2,3.691244125E-2,1.617801890E-1
2.186223779E0,1.606187820E-1,1.944231987E-2,4.886245728E-2,1.690086882E-1
2.194432895E0,1.460847855E-1,4.442918301E-2,4.398536682E-2,1.589006902E-1
2.202635625E0,1.410551071E-1,2.647280693E-2,5.122756958E-2,1.523864057E-1
2.210839510E0,1.266069412E-1,2.048373222E-2,4.146814346E-2,1.347906071E-1
2.219066856E0,8.106327057E-2,2.894127369E-2,3.887224197E-2,9.444523468E-2
2.227271164E0,9.055519104E-2,1.836228371E-2,6.508064270E-2,1.130172825E-1
2.235515933E0,6.893348694E-2,1.753509045E-2,7.934904099E-2,1.065625418E-1
2.243721048E0,4.961681366E-2,2.565383911E-3,1.009893417E-1,1.125489073E-1
2.251925779E0,6.383323669E-2,9.229660034E-3,1.082649231E-1,1.260204837E-1
2.260153741E0,4.918098450E-2,4.031777382E-3,1.253547668E-1,1.347176382E-1
2.268357394E0,2.246475220E-2,1.072287560E-2,9.707593918E-2,1.002166808E-1
2.276592664E0,-1.681804657E-2,-4.248023033E-3,8.882617950E-2,9.050404718E-2
2.284797356E0,-1.226425171E-3,-3.092968464E-2,8.332490921E-2,8.888863822E-2
2.293002202E0,4.642486572E-3,-6.720817089E-2,1.043787003E-1,1.242312520E-1
2.301230164E0,8.316040039E-3,-9.371554852E-2,1.012368202E-1,1.382051169E-1
2.309433702E0,4.323005676E-2,-8.176553249E-2,6.444120407E-2,1.127258129E-1
2.317669279E0,4.519557953E-2,-8.384752274E-2,1.058754921E-1,1.424172297E-1
2.325872856E0,1.597919464E-1,-1.146272421E-1,6.336116791E-2,2.066095554E-1
2.334076394E0,1.475152969E-1,-9.062385559E-2,5.905199051E-2,1.829223431E-1
2.342302202E0,1.929988861E-1,-5.495297909E-2,5.181646347E-2,2.072518898E-1
2.350506240E0,2.027044296E-1,-5.791890621E-2,2.274608612E-2,2.120402554E-1
2.358715317E0,2.052440643E-1,-3.473198414E-2,3.430223465E-2,2.109693816E-1
2.366919663E0,1.858358383E-1,-2.373301983E-2,5.120277405E-2,1.942162174E-1
2.375125625E0,1.278953552E-1,-1.063418388E-2,7.315874100E-2,1.477244365E-1
2.383353702E0,7.440662384E-2,4.525315762E-2,8.118057251E-2,1.190566222E-1
2.391557625E0,1.325225830E-2,5.792331696E-2,9.709358215E-2,1.138327576E-1
2.399824394E0,1.179218292E-2,9.481477737E-2,9.416770935E-2,1.341508668E-1
2.408027663E0,1.521301270E-2,1.075839996E-1,6.472110748E-2,1.264696584E-1
2.416230855E0,7.620048523E-2,6.773746014E-2,3.033924103E-2,1.063736199E-1
2.424457740E0,1.136198044E-1,7.802307606E-2,3.126621246E-2,1.413316539E-1
2.432661471E0,1.296300888E-1,4.546844959E-2,-8.655548096E-3,1.376454080E-1
2.440896394E0,1.601142883E-1,4.639554024E-2,2.307558060E-2,1.682902668E-1
2.449100586E0,1.569976807E-1,-6.631612778E-4,1.420497894E-2,1.576403912E-1
2.457306355E0,1.875438690E-1,-2.120375633E-2,1.234388351E-2,1.891419402E-1
2.465536086E0,1.677751541E-1,-3.216838837E-2,5.749225616E-3,1.709279414E-1
2.473742009E0,1.813907623E-1,-2.878606319E-2,-1.021957397E-2,1.839447900E-1
2.481988394E0,1.638698578E-1,-1.105260849E-2,-7.019996643E-3,1.643921251E-1
2.490196047E0,1.606922150E-1,-1.950693130E-2,2.977085114E-2,1.645867914E-1
2.498403394E0,1.387901306E-1,-2.563154697E-2,4.434204102E-2,1.479388156E-1
2.506632932E0,1.316576004E-1,1.149439812E-2,5.115222931E-2,1.417123689E-1
2.514838240E0,1.154184341E-1,-3.011631966E-2,3.815984726E-2,1.252380996E-1
2.523049509E0,1.305465698E-1,-3.546321392E-2,4.164505005E-2,1.415427731E-1
2.531257047E0,1.071090698E-1,-2.880740166E-2,2.398633957E-2,1.134793537E-1
2.539463970E0,8.834743500E-2,-5.051231384E-2,3.053188324E-2,1.062495130E-1
2.547695278E0,7.906723022E-2,-4.330861568E-2,2.769279480E-2,9.430882234E-2
2.555902740E0,5.305576324E-2,-4.782700539E-2,5.838775635E-2,9.225760971E-2
2.564141893E0,4.851627350E-2,-4.727065563E-2,8.209085464E-2,1.064295640E-1
2.572347124E0,5.860328674E-3,-3.192293644E-2,8.405876160E-2,9.010711806E-2
2.580552739E0,2.086067200E-2,1.682889462E-2,1.072516441E-1,1.105499638E-1
2.588782393E0,-2.500534058E-3,5.123019218E-2,1.185584068E-1,1.291777113E-1
2.596988316E0,5.053520203E-3,4.940402508E-2,1.133446693E-1,1.237469589E-1
2.605225585E0,2.921390533E-2,4.032754898E-2,1.059560776E-1,1.170745653E-1
2.613432547E0,3.166389465E-2,1.683473587E-2,7.725095749E-2,8.516877943E-2
2.621638009E0,1.936626434E-2,-2.825486660E-2,7.784891129E-2,8.505199980E-2
2.629867508E0,2.369785309E-2,-8.061134815E-2,8.341312408E-2,1.183956374E-1
2.638073008E0,-2.940273285E-2,-1.039823294E-1,1.225171089E-1,1.633624421E-1
2.646340893E0,-2.004909515E-2,-1.082413197E-1,1.469302177E-1,1.835936774E-1
2.654546970E0,-3.201961517E-2,-9.585809708E-2,1.398510933E-1,1.725466859E-1
2.662752047E0,-2.209281921E-2,-4.061615467E-2,1.010508537E-1,1.111262333E-1
2.670980854E0,4.519367218E-2,-2.332091331E-3,7.672786713E-2,8.907902250E-2
2.679185701E0,8.859443665E-2,2.512574196E-3,7.627677917E-2,1.169334609E-1
2.687395854E0,1.293249130E-1,4.709005356E-3,7.618236542E-2,1.501694398E-1
2.695599316E0,1.315660477E-1,1.177990437E-2,1.003298759E-1,1.658748777E-1
2.703803431E0,1.168136597E-1,5.009853840E-2,1.272573471E-1,1.798602986E-1
2.712031700E0,9.697341919E-2,5.254161358E-2,1.259212494E-1,1.673936266E-1
2.720237239E0,5.538940430E-2,6.456029415E-2,1.105179787E-1,1.394641219E-1
2.728484008E0,4.706859589E-2,4.777002335E-2,7.394075394E-2,9.982315834E-2
2.736689585E0,4.823875427E-2,3.132128716E-2,4.236602783E-2,7.143445077E-2
2.744896047E0,4.210376740E-2,3.672254086E-2,-3.309726715E-3,5.596629813E-2
2.753126316E0,8.149623871E-2,3.268623352E-2,-1.548528671E-2,8.916176810E-2
2.761332354E0,1.378526688E-1,-1.928210258E-3,-1.347064972E-2,1.385226865E-1
2.769569123E0,1.801424026E-1,1.737236977E-3,4.959106445E-5,1.801507860E-1
2.777775893E0,2.512779236E-1,1.264095306E-2,-5.739212036E-3,2.516611355E-1
2.785983931E0,2.409934998E-1,2.801287174E-2,-2.009868622E-3,2.426244577E-1
2.794213777E0,2.643013000E-1,4.288268089E-2,1.106023788E-2,2.679858772E-1
2.802420508E0,2.585611343E-1,2.616512775E-2,-2.099370956E-2,2.607282300E-1
2.810658777E0,2.217502594E-1,3.544366360E-2,-2.926921844E-2,2.264643857E-1
2.818865469E0,1.849946976E-1,1.840043068E-2,-2.805185318E-2,1.880120221E-1
2.827070123E0,1.556234360E-1,3.551363945E-3,-2.240324020E-2,1.572678326E-1
2.835299738E0,1.456651688E-1,1.517343521E-2,-1.472282410E-2,1.471914946E-1
2.843504277E0,1.430072784E-1,2.463722229E-2,9.594440460E-3,1.454308348E-1
2.851714546E0,1.691370010E-1,3.156960011E-2,-4.517078400E-3,1.721173111E-1
2.859918008E0,1.833066940E-1,3.376746178E-2,1.967287064E-2,1.874262719E-1
2.868122815E0,1.902303696E-1,2.624058723E-2,5.616188049E-3,1.921137775E-1
2.876350392E0,1.708412170E-1,1.152133942E-2,1.786184311E-2,1.721583810E-1
2.884557123E0,1.516504288E-1,2.077376842E-2,3.459548950E-2,1.569275307E-1
2.892828469E0,1.517553329E-1,1.084959507E-2,6.786537170E-2,1.665926273E-1
2.901034738E0,1.210489273E-1,-1.571953297E-2,7.674312592E-2,1.441854843E-1
2.909240892E0,1.000404358E-1,-2.557587624E-2,7.584619522E-2,1.281204885E-1
2.917471046E0,8.873844147E-2,-2.545940876E-2,1.035814285E-1,1.387508732E-1
2.925678161E0,5.837821960E-2,-1.102530956E-2,1.143980026E-1,1.289049145E-1
2.933914930E0,5.430126190E-2,3.350138664E-3,1.252827644E-1,1.365855832E-1
2.942120777E0,2.152633667E-2,3.908491135E-2,1.288857460E-1,1.363911617E-1
2.950327469E0,2.472877502E-2,6.755566597E-2,1.132187843E-1,1.341408716E-1
2.958559892E0,3.023529053E-2,5.537486076E-2,1.072783470E-1,1.244555814E-1
2.966765238E0,3.093147278E-2,2.972722054E-3,8.473348618E-2,9.025163026E-2
2.975012007E0,5.070877075E-2,-4.174244404E-2,8.397626877E-2,1.066106223E-1
2.983217123E0,1.109848022E-1,-5.037856102E-2,1.075110435E-1,1.625246142E-1
2.991422392E0,7.295322418E-2,-8.048331738E-2,1.624140739E-1,1.953920897E-1
2.999651353E0,9.248352051E-2,-3.639829159E-2,1.764531136E-1,2.025184892E-1
3.007857084E0,7.379245758E-2,1.246857643E-2,1.376886368E-1,1.567129634E-1
3.016067738E0,5.745792389E-2,2.989721298E-2,1.348128319E-1,1.495652232E-1
3.024273315E0,2.929019928E-2,7.830488682E-2,1.077494621E-1,1.363800486E-1
3.032479007E0,4.207992554E-2,8.570790291E-2,1.017646790E-1,1.395443107E-1
3.040705661E0,5.752563477E-2,8.558034897E-2,1.000828743E-1,1.437003010E-1
3.048909468E0,9.699344635E-2,5.447185040E-2,9.113264084E-2,1.438056652E-1
3.057147891E0,1.365633011E-1,5.905187130E-2,7.718372345E-2,1.676126065E-1
3.065355853E0,1.736335754E-1,2.810990810E-2,7.546567917E-2,1.913997236E-1
3.073561891E0,1.530056000E-1,3.536105156E-2,7.408094406E-2,1.736349730E-1
3.081793276E0,1.534776688E-1,5.738699436E-2,7.348155975E-2,1.795778426E-1
3.089998276E0,6.743335724E-2,9.619641304E-2,4.465532303E-2,1.256785798E-1
3.098234545E0,2.841949463E-3,1.305001974E-1,3.759002686E-2,1.358358875E-1
3.106440622E0,-1.141643524E-2,1.290357113E-1,2.808666229E-2,1.325496525E-1
3.114646314E0,-3.790855408E-2,9.630525112E-2,1.894664764E-2,1.052175619E-1
3.122875814E0,-4.026794434E-2,2.564644814E-2,-7.146358490E-3,4.827336825E-2
3.131082737E0,-2.822494507E-2,-6.832909584E-2,-1.398754120E-2,7.524070821E-2
3.139352007E0,4.349327087E-2,-1.307822466E-1,-2.044868469E-2,1.393334466E-1
3.147559314E0,2.437400818E-2,-2.435686588E-1,-2.235078812E-2,2.458034613E-1
3.155766199E0,1.206359863E-1,-3.703848124E-1,1.343822479E-2,3.897672848E-1
3.163995891E0,2.531099319E-1,-4.788380861E-1,3.002882004E-2,5.424502562E-1
3.172201891E0,3.518962860E-1,-5.014063120E-1,4.023361206E-2,6.138876358E-1
3.180412737E0,3.254976273E-1,-4.038168192E-1,4.203414917E-2,5.203687140E-1
3.188617122E0,1.622428894E-1,-2.802484035E-1,3.954839706E-2,3.262299780E-1
3.196822006E0,7.586669922E-2,-1.650041342E-1,1.180505753E-2,1.819930760E-1
3.205048814E0,2.086353302E-2,-5.503594875E-2,2.904605865E-2,6.563471786E-2
3.213254160E0,3.784179688E-2,1.857388020E-2,6.269693375E-2,7.555061957E-2
3.221500545E0,-1.704216003E-2,7.234919071E-2,8.425426483E-2,1.123548920E-1
3.229705275E0,-4.811477661E-2,1.376401186E-1,1.178641319E-1,1.874880998E-1
3.237909391E0,-3.157615662E-2,1.381963491E-1,1.351041794E-1,1.958275360E-1
3.246137314E0,-1.505661011E-2,1.604642868E-1,1.619944572E-1,2.285119100E-1
3.254342237E0,6.109046936E-2,1.805324554E-1,1.653399467E-1,2.523119318E-1
3.262579583E0,1.226873398E-1,1.884440184E-1,1.545562744E-1,2.728570566E-1
3.270785660E0,1.602363586E-1,1.793701649E-1,1.558451653E-1,2.865956423E-1
3.278990160E0,1.786127090E-1,1.794832945E-1,1.235432625E-1,2.817440160E-1
3.287217775E0,1.659250259E-1,1.340913773E-1,1.007213593E-1,2.359160950E-1
3.295422814E0,1.460762024E-1,1.100575924E-1,1.017618179E-1,2.092997805E-1
3.303659621E0,1.381797791E-1,7.632756233E-2,9.322071075E-2,1.833293458E-1
3.311865698E0,9.689712524E-2,4.258704185E-2,7.489728928E-2,1.296623035E-1
3.320072890E0,9.882164001E-2,3.196561337E-2,5.618762970E-2,1.180871149E-1
3.328301160E0,9.855079651E-2,2.405250072E-2,3.725767136E-2,1.080690352E-1
3.336504275E0,1.224040985E-1,1.137280464E-2,1.296520233E-3,1.229381348E-1
3.344714660E0,1.249742508E-1,1.081037521E-2,8.788108826E-4,1.254440109E-1
3.352918775E0,1.419563293E-1,5.452752113E-3,-1.876306534E-2,1.432947472E-1
3.361123929E0,1.734952927E-1,9.831428528E-3,-2.429485321E-2,1.754637098E-1
3.369351506E0,2.119722366E-1,3.570139408E-2,-3.664398193E-2,2.180587078E-1
3.377555121E0,2.479410172E-1,2.798676491E-2,-2.489995956E-2,2.507548902E-1
3.385823159E0,2.192592621E-1,5.949497223E-3,-2.749395370E-2,2.210564137E-1
3.394028506E0,2.361497879E-1,-8.618831635E-3,-1.338195801E-2,2.366856214E-1
3.402233890E0,2.290105820E-1,2.939462662E-3,-1.595401764E-2,2.295844458E-1
3.410462198E0,2.100229263E-1,9.803533554E-3,1.004648209E-2,2.104914978E-1
3.418667005E0,1.506681442E-1,1.435732841E-2,2.598094940E-2,1.535644239E-1
3.426901544E0,1.583595276E-1,-9.458422661E-3,1.326656342E-2,1.591954881E-1
3.435106082E0,1.442947388E-1,-7.000088692E-3,1.521682739E-2,1.452636387E-1
3.443310236E0,1.064682007E-1,9.695172310E-3,1.925611496E-2,1.086290573E-1
3.451538236E0,7.104873657E-2,-2.147436142E-3,2.092695236E-2,7.409771782E-2
3.459742044E0,3.829860687E-2,-2.813303471E-2,3.899812698E-2,6.147442426E-2
3.467987198E0,2.485752106E-2,-6.155252457E-3,4.727602005E-2,5.376621205E-2
3.476192698E0,6.825447083E-3,-2.239143848E-2,7.682704926E-2,8.031412542E-2
3.484398582E0,1.519680023E-2,-3.602600098E-2,1.135115623E-1,1.200570292E-1
3.492629390E0,6.906223297E-2,-6.431901455E-2,1.405382156E-1,1.692853145E-1
3.500836851E0,7.731628418E-2,-6.680440903E-2,1.604309082E-1,1.902070271E-1
3.509048313E0,5.173587799E-2,-5.041122437E-2,1.615777016E-1,1.769893959E-1
3.517254620E0,4.057598114E-2,-4.362368584E-2,1.506624222E-1,1.620142021E-1
3.525462428E0,2.443599701E-2,3.727793694E-3,1.735234261E-1,1.752751944E-1
3.533694274E0,3.451919556E-2,2.446198463E-2,1.677532196E-1,1.730060873E-1
3.541900774E0,1.106071472E-2,5.471158028E-2,1.596055031E-1,1.690846328E-1
3.550139159E0,4.199028015E-3,4.903113842E-2,1.612792015E-1,1.686198838E-1
3.558345620E0,-1.693058014E-2,5.519008636E-2,1.508011818E-1,1.614731761E-1
3.566551736E0,7.457733154E-3,5.444085598E-2,1.331691742E-1,1.440605898E-1
3.574779389E0,1.965808868E-2,5.849194527E-2,1.062922478E-1,1.229056144E-1
3.582982620E0,5.108070374E-2,3.875005245E-2,1.368117332E-1,1.510902221E-1
3.591220389E0,3.952693939E-2,9.647369385E-3,1.432633400E-1,1.489289604E-1
3.599427812E0,7.354927063E-2,5.745887756E-5,1.257352829E-1,1.456669485E-1
3.607634889E0,7.153892517E-2,-3.084766865E-2,1.036624908E-1,1.296738543E-1
3.615866620E0,5.748176575E-2,-6.692409515E-3,9.606742859E-2,1.121512041E-1
3.624072966E0,7.694053650E-2,-3.502500057E-2,7.416105270E-2,1.124564741E-1
3.632341120E0,7.460880280E-2,-3.681898117E-2,7.182598114E-2,1.099139773E-1
3.640546505E0,6.496334076E-2,-2.634572983E-2,6.737327576E-2,9.722906669E-2
3.648752658E0,1.245889664E-1,-3.277063370E-2,6.073665619E-2,1.424263542E-1
3.656984312E0,1.027755737E-1,-1.528632641E-2,3.977918625E-2,1.112603882E-1
3.665188389E0,1.312074661E-1,-3.376483917E-2,3.801393509E-2,1.407143304E-1
3.673396197E0,1.238441467E-1,-1.878666878E-2,4.084300995E-2,1.317515202E-1
3.681599274E0,1.139535904E-1,-1.835453510E-2,2.467250824E-2,1.180298368E-1
3.689802004E0,1.207437515E-1,-2.980184555E-2,3.258848190E-2,1.285659857E-1
3.698028120E0,1.251697540E-1,-3.660559654E-2,2.365922928E-2,1.325412998E-1
3.706231658E0,1.199483871E-1,-4.575061798E-2,-6.693840027E-3,1.285517099E-1
3.714478889E0,1.531286240E-1,-2.370131016E-2,2.986478806E-2,1.578037805E-1
3.722684581E0,1.431388855E-1,-4.739069939E-2,2.098226547E-2,1.522329609E-1
3.730887697E0,1.068410873E-1,-2.802479267E-2,4.864215851E-3,1.105625051E-1
3.739113235E0,1.208000183E-1,-1.104414463E-2,1.032733917E-2,1.217426445E-1
3.747315581E0,1.298713684E-1,-1.815748215E-2,2.787399292E-2,1.340642606E-1
3.755549696E0,1.270484924E-1,-1.557981968E-2,2.857494354E-2,1.311509726E-1
3.763752466E0,1.220664978E-1,-1.324856281E-2,1.927661896E-2,1.242873378E-1
3.771956696E0,1.530876160E-1,5.958795547E-3,3.620719910E-2,1.574239076E-1
3.780182927E0,1.314716339E-1,-1.548659801E-2,4.112529755E-2,1.386214822E-1
3.788386504E0,1.314125061E-1,-1.092565060E-2,2.439785004E-2,1.341039585E-1
3.796622158E0,1.028470993E-1,1.054382324E-2,3.130817413E-2,1.080226819E-1
3.804826196E0,1.054887772E-1,-8.701562881E-3,2.611923218E-2,1.090220785E-1
3.813030581E0,1.130323410E-1,-1.335310936E-2,3.518009186E-2,1.191312491E-1
3.821258773E0,1.421689987E-1,-3.220498562E-2,5.858325958E-2,1.571024621E-1
3.829463081E0,1.377840042E-1,-3.655302525E-2,7.245016098E-2,1.599049133E-1
3.837674196E0,1.500949860E-1,-2.739906311E-3,5.046415329E-2,1.583750064E-1
3.845880504E0,1.361541748E-1,1.209771633E-2,8.106517792E-2,1.589209776E-1
3.854087158E0,1.267557144E-1,3.622591496E-2,8.323574066E-2,1.559086802E-1
3.862317888E0,7.415008545E-2,6.505286694E-2,7.837152481E-2,1.259849458E-1
3.870522965E0,6.456565857E-2,5.767714977E-2,4.960012436E-2,9.977750352E-2
3.878790734E0,8.648300171E-2,7.466316223E-3,5.384397507E-2,1.021480744E-1
3.886998081E0,5.579948425E-2,1.960968971E-2,6.279754639E-2,8.626502307E-2
3.895202619E0,7.063865662E-2,1.508378983E-2,7.411670685E-2,1.034921580E-1
3.903432273E0,1.285266876E-1,-2.058374882E-2,8.789634705E-2,1.570623060E-1
3.911637811E0,1.046619415E-1,2.967405319E-2,9.734869003E-2,1.459843789E-1
3.919875542E0,9.279060364E-2,2.936828136E-2,1.019067764E-1,1.409169371E-1
3.928082811E0,5.928516388E-2,2.889716625E-2,9.936761856E-2,1.192631565E-1
3.936288234E0,4.028987885E-2,4.265129566E-2,7.263135910E-2,9.336874040E-2
3.944518503E0,5.482292175E-2,4.948985577E-2,6.989383698E-2,1.016855300E-1
3.952722542E0,4.792690277E-2,2.023160458E-2,6.692838669E-2,8.476859547E-2
3.960967273E0,6.976509094E-2,7.882356644E-3,7.596349716E-2,1.034396073E-1
3.969169580E0,7.697582245E-2,5.283713341E-3,9.262800217E-2,1.205534805E-1
3.977372888E0,9.149074554E-2,1.474356651E-2,9.715938568E-2,1.342679243E-1
3.985602465E0,1.227121353E-1,1.933789253E-2,1.065373421E-1,1.636533761E-1
3.993806580E0,9.404277802E-2,1.675772667E-2,1.063947678E-1,1.429850066E-1
4.002016465E0,1.131839752E-1,4.296588898E-2,8.483409882E-2,1.478293076E-1
4.010220772E0,1.179571152E-1,4.703998566E-3,5.853223801E-2,1.317650618E-1
4.018426695E0,9.878349304E-2,2.629911900E-2,4.420852661E-2,1.113742160E-1
4.026657426E0,7.243728638E-2,2.606511116E-3,3.231859207E-2,7.936274788E-2
4.034865195E0,5.573463440E-2,6.691217422E-4,3.714036942E-2,6.697913284E-2
4.043105849E0,4.393386841E-2,-2.035987377E-2,4.898977280E-2,6.888183427E-2
4.051311349E0,3.226852417E-2,-3.871309757E-2,4.394435883E-2,6.686604705E-2
4.059516888E0,3.973388672E-2,-3.327262402E-2,6.283855438E-2,8.145264378E-2
4.067747965E0,4.234695435E-2,-2.291810513E-2,5.552482605E-2,7.349496849E-2
4.075953734E0,4.972171783E-2,-3.641688824E-2,6.743288040E-2,9.135443247E-2
4.084191234E0,8.821105957E-2,-2.855896950E-2,5.535936356E-2,1.079882628E-1
4.092396080E0,1.123895645E-1,-1.587390900E-2,6.236982346E-2,1.295121233E-1
4.100602426E0,1.363191605E-1,-2.730882168E-2,5.534601212E-2,1.496391202E-1
4.108831311E0,1.577329636E-1,-3.145098686E-2,7.247638702E-2,1.764133755E-1
4.117035734E0,1.287078857E-1,-1.888597012E-2,5.631971359E-2,1.417543998E-1
4.125303234E0,9.493350983E-2,-2.811205387E-2,5.440473557E-2,1.129713863E-1
4.133507618E0,7.788181305E-2,-8.745074272E-3,2.378129959E-2,8.189995933E-2
4.141712349E0,7.530689240E-2,2.258050442E-2,2.410745621E-2,8.223245507E-2
4.149940772E0,7.516193390E-2,-2.745544910E-2,3.157567978E-2,8.602407539E-2
4.158145310E0,1.181316376E-1,-5.093455315E-2,1.752185822E-2,1.298323073E-1
4.166356656E0,1.085186005E-1,-4.329609871E-2,4.642724991E-2,1.257232212E-1
4.174561656E0,1.107931137E-1,-5.010080338E-2,3.952598572E-2,1.278573740E-1
4.182766579E0,1.514291763E-1,-4.270660877E-2,6.840991974E-2,1.715650518E-1
4.190994349E0,1.513566971E-1,-6.621718407E-3,6.616926193E-2,1.653211061E-1
4.199200118E0,1.178445816E-1,3.176331520E-3,8.297920227E-2,1.441630414E-1
4.207447349E0,9.853553772E-2,1.510024071E-2,9.038448334E-2,1.345608572E-1
4.215653772E0,8.884143829E-2,2.968156338E-2,8.583116531E-2,1.270463904E-1
4.223859310E0,9.570884705E-2,2.966701984E-2,7.673120499E-2,1.262061539E-1
4.232088810E0,1.073694229E-1,2.726328373E-2,8.677577972E-2,1.407178580E-1
4.240293964E0,8.072185516E-2,1.779210567E-2,6.812477112E-2,1.071147112E-1
4.248530348E0,8.995437622E-2,3.233075142E-2,6.629991531E-2,1.163303316E-1
4.256735964E0,8.492088318E-2,2.778327465E-2,7.391738892E-2,1.159622660E-1
4.264940041E0,8.697319031E-2,2.559328079E-2,6.970500946E-2,1.143596966E-1
4.273168002E0,8.923912048E-2,2.358996868E-2,5.563592911E-2,1.077750614E-1
4.281373041E0,1.129045486E-1,2.863574028E-2,6.809568405E-2,1.349239227E-1
4.289610464E0,8.632373810E-2,2.647566795E-2,7.092332840E-2,1.148166681E-1
4.297817964E0,7.191371918E-2,2.205276489E-2,6.629753113E-2,1.002659966E-1
4.306024617E0,9.594345093E-2,1.518285275E-2,6.385421753E-2,1.162455414E-1
4.314252502E0,9.598350525E-2,3.462910652E-3,7.343578339E-2,1.209034297E-1
4.322459002E0,9.844779968E-2,3.500056267E-2,6.625556946E-2,1.237206900E-1
4.330669656E0,1.319751740E-1,4.476618767E-2,5.911016464E-2,1.513785641E-1
4.338875579E0,1.246585846E-1,5.686521530E-2,8.807516098E-2,1.628823177E-1
4.347079656E0,1.148958206E-1,4.740118980E-2,5.965995789E-2,1.378667217E-1
4.355309079E0,1.075277328E-1,2.368080616E-2,6.239366531E-2,1.265541915E-1
4.363512502E0,9.051799774E-2,3.326821327E-2,8.193063736E-2,1.265421324E-1
4.371780310E0,9.281730652E-2,3.107297421E-2,7.255268097E-2,1.218378990E-1
4.379983656E0,9.761333466E-2,2.656173706E-2,6.782627106E-2,1.217961084E-1
4.388188579E0,1.191616058E-1,1.009202003E-2,4.874515533E-2,1.291411141E-1
4.396417309E0,8.808135986E-2,1.284635067E-2,6.313896179E-2,1.091324112E-1
4.404622386E0,9.048748016E-2,8.496403694E-3,4.168891907E-2,9.999069414E-2
4.412859002E0,8.318328857E-2,-2.691435814E-2,4.918813705E-2,1.003160755E-1
4.421062809E0,9.752559662E-2,2.350091934E-3,5.415105820E-2,1.115755441E-1
4.429266694E0,1.094388962E-1,-1.606953144E-2,3.767490387E-2,1.168524720E-1
4.437493617E0,9.735107422E-2,-3.466296196E-2,5.236625671E-2,1.158489423E-1
4.445696809E0,1.043787003E-1,-2.459096909E-2,3.836822510E-2,1.138935886E-1
4.453942617E0,6.123733521E-2,-2.895343304E-2,4.812717438E-2,8.309354621E-2
4.462146348E0,1.020469666E-1,-3.804159164E-2,3.372716904E-2,1.140099470E-1
4.470350848E0,1.022033691E-1,-3.741514683E-2,5.280494690E-2,1.209701794E-1
4.478579501E0,1.287174225E-1,-6.800162792E-2,4.549455643E-2,1.525193460E-1
4.486783694E0,1.622562408E-1,-8.183395863E-2,4.799842834E-2,1.879567333E-1
4.494993694E0,1.600008011E-1,-8.385217190E-2,4.309844971E-2,1.857119260E-1
4.503199078E0,1.600103378E-1,-7.153737545E-2,5.275440216E-2,1.830407912E-1
4.511403424E0,1.646652222E-1,-5.207121372E-2,4.346275330E-2,1.780872191E-1
4.519631809E0,1.333093643E-1,-2.315056324E-2,4.865074158E-2,1.437853603E-1
4.527837386E0,9.003257751E-2,-1.337063313E-2,3.940486908E-2,9.918358005E-2
4.536074155E0,8.741378784E-2,3.625869751E-3,2.783870697E-2,9.181127840E-2
4.544280463E0,7.067871094E-2,3.042292595E-2,2.074480057E-2,7.969555417E-2
4.552487155E0,1.067771912E-1,-7.404327393E-3,1.819515228E-2,1.085691309E-1
4.560717693E0,1.045942307E-1,2.622008324E-3,2.277994156E-2,1.070782599E-1
4.568922540E0,1.409368515E-1,-3.531885147E-2,5.574226379E-2,1.556207485E-1
4.577159309E0,1.341915131E-1,-1.798486710E-2,7.438039780E-2,1.544773809E-1
4.585366232E0,1.367883682E-1,-5.872130394E-3,8.129167557E-2,1.592290053E-1
4.593572463E0,1.417312622E-1,8.670687675E-3,8.589315414E-2,1.659535039E-1
4.601800732E0,9.386539459E-2,1.105439663E-2,1.002292633E-1,1.377636280E-1
4.610004193E0,7.235050201E-2,1.580488682E-2,8.101463318E-2,1.097622903E-1
4.618270078E0,6.045722961E-2,2.759277821E-2,5.211830139E-2,8.445564138E-2
4.626475078E0,6.063079834E-2,2.040660381E-2,5.185174942E-2,8.234759926E-2
4.634678155E0,6.806564331E-2,1.811540127E-2,6.585979462E-2,9.642931146E-2
4.642905616E0,8.267402649E-2,8.805155754E-3,5.358791351E-2,9.891506406E-2
4.651109539E0,9.023380280E-2,2.111160755E-2,7.944154739E-2,1.220606349E-1
4.659317424E0,1.001358032E-1,-2.590656281E-3,7.661676407E-2,1.261111380E-1
4.667520270E0,1.075162888E-1,1.675713062E-2,8.594465256E-2,1.386615919E-1
4.675723578E0,9.338855743E-2,1.212394238E-2,8.322811127E-2,1.256794778E-1
4.683950116E0,9.362030029E-2,1.709151268E-2,7.095289230E-2,1.187063324E-1
4.692153578E0,9.618186951E-2,2.906203270E-3,7.553434372E-2,1.223308429E-1
4.700398078E0,7.970428467E-2,7.816672325E-3,8.232116699E-2,1.148505459E-1
4.708601731E0,1.012983322E-1,7.962584496E-3,7.271337509E-2,1.249479483E-1
4.716807001E0,1.108160019E-1,-8.725643158E-3,6.324529648E-2,1.278917145E-1
4.725036347E0,1.178979874E-1,1.075148582E-3,5.627441406E-2,1.306441772E-1
4.733244039E0,1.105775833E-1,-1.555836201E-2,5.891180038E-2,1.262539694E-1
4.741481500E0,9.613609314E-2,1.796865463E-2,5.663299561E-2,1.130146767E-1
4.749688308E0,8.883666992E-2,2.269744873E-2,3.764200211E-2,9.911633783E-2
4.757893193E0,1.007947922E-1,1.067376137E-2,4.722690582E-2,1.118208386E-1
4.766121654E0,8.423614502E-2,-1.071846485E-2,5.414676666E-2,1.007099099E-1
4.774327346E0,8.671188354E-2,-1.296734810E-2,5.645370483E-2,1.042790662E-1
4.782565231E0,7.003498077E-2,-5.720019341E-3,7.070827484E-2,9.968589311E-2
4.790771116E0,7.732582092E-2,-2.710223198E-2,8.734846115E-2,1.197646326E-1
4.798977346E0,9.421157837E-2,-2.697408199E-2,9.197807312E-2,1.344001061E-1
4.807205654E0,8.946990967E-2,-2.441489697E-2,7.040214539E-2,1.164363088E-1
4.815410346E0,1.180925369E-1,-1.482439041E-2,8.254051208E-2,1.448397251E-1
4.823620346E0,1.179399490E-1,-1.941156387E-2,6.367301941E-2,1.354285560E-1
4.831823462E0,1.129665375E-1,-4.993319511E-3,7.115268707E-2,1.336004368E-1
4.840026615E0,1.055974960E-1,-2.519011497E-3,4.991006851E-2,1.168254746E-1
4.848255308E0,1.079397202E-1,4.817008972E-3,4.045200348E-2,1.153713628E-1
4.856458231E0,1.079282761E-1,-1.641380787E-2,5.731344223E-2,1.232994587E-1
4.864726500E0,8.401012421E-2,-6.554603577E-3,4.777574539E-2,9.686684492E-2
4.872928346E0,9.358882904E-2,-2.301907539E-2,5.024528503E-2,1.086891688E-1
4.881129577E0,1.127758026E-1,-1.797640324E-2,4.786825180E-2,1.238260968E-1
4.889355461E0,1.127853394E-1,-1.521790028E-2,6.471109390E-2,1.309184591E-1
4.897560000E0,1.032276154E-1,-2.965807915E-3,5.996847153E-2,1.194192370E-1
4.905795000E0,9.843254089E-2,1.872277260E-2,6.241035461E-2,1.180447359E-1
4.913997077E0,1.175222397E-1,-2.774357796E-3,6.252145767E-2,1.331469359E-1
4.922200731E0,8.160018921E-2,-3.577470779E-4,6.732988358E-2,1.057924009E-1
4.930429269E0,1.056289673E-1,-1.947677135E-2,5.762863159E-2,1.218929142E-1
4.938635846E0,1.033210754E-1,-2.815842628E-3,5.268192291E-2,1.160110279E-1
4.946885230E0,1.082201004E-1,3.053522110E-2,4.768228531E-2,1.221375871E-1
4.955091346E0,9.387779236E-2,1.119554043E-2,6.435680389E-2,1.143686068E-1
4.963296423E0,9.628391266E-2,2.524960041E-2,6.425666809E-2,1.184780720E-1
4.971525346E0,1.011562347E-1,2.052807808E-2,4.978084564E-2,1.145954554E-1
4.979729692E0,9.166622162E-2,2.287876606E-2,4.724216461E-2,1.056312276E-1
4.987941115E0,1.013641357E-1,1.778876781E-2,5.894899368E-2,1.186006414E-1
4.996144807E0,1.134481430E-1,-6.276249886E-3,7.550382614E-2,1.364210403E-1
5.004348153E0,1.016149521E-1,3.350138664E-3,7.530879974E-2,1.265236627E-1
5.012582884E0,1.042356491E-1,-6.441593170E-3,7.250976562E-2,1.271386282E-1
5.020788384E0,1.115427017E-1,-1.599192619E-2,5.557060242E-2,1.256407890E-1
5.029021461E0,8.056640625E-2,-1.775860786E-3,6.966972351E-2,1.065268505E-1
5.037225692E0,7.595157623E-2,-8.920311928E-3,8.138895035E-2,1.116797884E-1
5.045430307E0,6.412124634E-2,-1.122248173E-2,7.401704788E-2,9.856978089E-2
5.053657076E0,4.271697998E-2,-4.010915756E-3,7.619953156E-2,8.744825003E-2
5.061860230E0,7.636928558E-2,1.540660858E-2,8.324813843E-2,1.140170335E-1
5.070095153E0,1.052179337E-1,1.069724560E-2,6.154298782E-2,1.223633277E-1
5.078298461E0,1.124238968E-1,6.111383438E-3,7.832145691E-2,1.371522227E-1
5.086502191E0,8.832168579E-2,3.701090813E-3,1.001086235E-1,1.335520676E-1
5.094731499E0,1.044521332E-1,-1.305568218E-2,7.712173462E-2,1.304931451E-1
5.102935961E0,8.462238312E-2,8.514404297E-3,2.787685394E-2,8.950174183E-2
5.111201768E0,7.950687408E-2,8.528709412E-3,2.598571777E-2,8.407936393E-2
5.119403384E0,5.538558960E-2,8.689165115E-3,5.503273010E-2,7.855995486E-2
5.127605307E0,7.928466797E-2,1.139855385E-2,3.363180161E-2,8.687395285E-2
5.135835037E0,7.447433472E-2,-1.483285427E-2,3.369522095E-2,8.307712087E-2
5.144038191E0,1.032400131E-1,-5.141615868E-3,5.761528015E-2,1.183404286E-1
5.152247345E0,1.224927902E-1,-1.452088356E-2,6.230354309E-2,1.381921532E-1
5.160450460E0,1.248540878E-1,-9.679675102E-3,5.518484116E-2,1.368488438E-1
5.168652306E0,1.463441849E-1,-1.922476292E-2,8.879947662E-2,1.722543439E-1
5.176878114E0,1.414241791E-1,2.342700958E-3,6.506204605E-2,1.556899371E-1
5.185079460E0,1.100149155E-1,4.737973213E-3,6.310272217E-2,1.269160493E-1
5.193322922E0,9.542846680E-2,1.429128647E-2,6.582784653E-2,1.168081270E-1
5.201525037E0,4.503440857E-2,1.907491684E-2,3.248310089E-2,5.871202816E-2
5.209725999E0,6.165409088E-2,-2.344608307E-3,4.470109940E-2,7.618997570E-2
5.217953076E0,5.688953400E-2,2.672028542E-2,4.714679718E-2,7.856979837E-2
5.226155614E0,8.569431305E-2,3.219366074E-3,4.236364365E-2,9.564809413E-2
5.234390191E0,1.001596451E-1,-1.550793648E-2,5.190277100E-2,1.138698741E-1
5.242592345E0,8.356380463E-2,-1.282310486E-2,6.848955154E-2,1.088033094E-1
5.250795883E0,1.003942490E-1,-5.910396576E-4,6.366443634E-2,1.188802549E-1
5.259024037E0,9.083747864E-2,1.954913139E-3,7.325124741E-2,1.167091019E-1
5.267226806E0,1.075162888E-1,4.489660263E-3,5.665016174E-2,1.216106501E-1
5.275462345E0,8.360671997E-2,-1.788139343E-5,6.146383286E-2,1.037684282E-1
5.283666037E0,7.639503479E-2,1.561641693E-4,6.155729294E-2,9.810976527E-2
5.291869575E0,8.841419220E-2,-4.525899887E-3,6.151056290E-2,1.078012175E-1
5.300098729E0,9.810924530E-2,-6.539821625E-3,5.903720856E-2,1.146890809E-1
5.308302806E0,1.125125885E-1,1.047825813E-2,6.623077393E-2,1.309785932E-1
5.316509729E0,1.339406967E-1,1.770329475E-2,6.642389297E-2,1.505511556E-1
5.324711575E0,1.266641617E-1,2.002108097E-2,6.415224075E-2,1.433881569E-1
5.332912460E0,1.026268005E-1,1.753687859E-2,6.666803360E-2,1.236302107E-1
5.341138421E0,1.146011353E-1,7.954835892E-3,6.905651093E-2,1.340354480E-1
5.349341229E0,9.788036346E-2,2.486228943E-2,4.988193512E-2,1.126361684E-1
5.357606883E0,8.361053467E-2,1.017808914E-3,5.215787888E-2,9.855050366E-2
5.365810306E0,8.859062195E-2,3.519773483E-3,6.147241592E-2,1.078867231E-1
5.374014075E0,7.909965515E-2,1.331269741E-2,4.703521729E-2,9.298545597E-2
5.382241575E0,9.845066071E-2,-2.002573013E-2,5.875205994E-2,1.163845652E-1
5.390445306E0,1.010255814E-1,-5.370497704E-3,4.658269882E-2,1.113775478E-1
5.398679459E0,1.275348663E-1,-2.437078953E-2,7.748794556E-2,1.512066772E-1
5.406881959E0,1.106996536E-1,-2.913808823E-2,6.803131104E-2,1.331604325E-1
5.415084806E0,1.010065079E-1,-1.471757889E-2,5.864524841E-2,1.177208007E-1
5.423312613E0,1.031103134E-1,1.956224442E-3,5.667066574E-2,1.176738200E-1
5.431514075E0,9.346008301E-2,1.960635185E-3,6.157112122E-2,1.119358485E-1
5.439756152E0,7.659912109E-2,4.235148430E-3,4.972410202E-2,9.142126753E-2
5.447960152E0,6.936168671E-2,1.138150692E-2,5.937242508E-2,9.200906011E-2
5.456163844E0,7.897758484E-2,-7.642030716E-3,4.498481750E-2,9.121125669E-2
5.464393882E0,9.327030182E-2,-7.519364357E-3,5.949163437E-2,1.108834731E-1
5.472598575E0,1.292314529E-1,-2.494931221E-3,6.187772751E-2,1.433033366E-1
5.480807344E0,1.195774078E-1,-2.140665054E-2,5.487728119E-2,1.332986014E-1
5.489008921E0,1.074533463E-1,2.639651299E-3,6.471347809E-2,1.254632362E-1
5.497211536E0,1.216020584E-1,7.319331169E-3,7.938098907E-2,1.454028014E-1
5.505437613E0,1.142444611E-1,1.925849915E-2,6.287956238E-2,1.318200517E-1
5.513639382E0,1.188011169E-1,2.878630161E-2,4.645824432E-2,1.307697404E-1
5.521871997E0,1.090402603E-1,2.168583870E-2,5.873155594E-2,1.257356339E-1
5.530074497E0,9.221839905E-2,2.422273159E-2,5.407524109E-2,1.096134369E-1
5.538278074E0,9.691715240E-2,1.932406425E-2,5.418539047E-2,1.127049707E-1
5.546506074E0,8.499050140E-2,3.376090527E-2,7.089710236E-2,1.157133665E-1
5.554710459E0,9.708976746E-2,3.147006035E-2,5.875682831E-2,1.177673661E-1
5.562947151E0,9.224033356E-2,1.462900639E-2,7.798004150E-2,1.216682943E-1
5.571151690E0,9.229278564E-2,2.426970005E-2,7.073545456E-2,1.187875463E-1
5.579356190E0,1.067323685E-1,1.941514015E-2,7.778835297E-2,1.334907263E-1
5.587583766E0,1.043977737E-1,2.665245533E-2,8.250188828E-2,1.357048640E-1
5.595788228E0,9.713268280E-2,3.377079964E-2,7.303142548E-2,1.261301474E-1
5.604053613E0,9.224796295E-2,5.059838295E-3,6.121253967E-2,1.108253746E-1
5.612257651E0,9.224128723E-2,5.015134811E-3,8.275651932E-2,1.240251915E-1
5.620461805E0,7.306098938E-2,-2.275466919E-3,5.403709412E-2,9.090155917E-2
5.628690266E0,8.728599548E-2,-6.894946098E-3,4.472160339E-2,9.831788799E-2
5.636894574E0,8.492088318E-2,-2.832508087E-2,4.710483551E-2,1.011569678E-1
5.645109382E0,1.137094498E-1,-1.618659496E-2,3.987836838E-2,1.215817794E-1
5.653311997E0,1.258239746E-1,-2.789115906E-2,5.170059204E-2,1.388615878E-1
5.661515305E0,1.403264999E-1,-3.249740601E-2,3.717279434E-2,1.487596203E-1
5.669741881E0,1.714563370E-1,-5.377542973E-2,5.399799347E-2,1.876295702E-1
5.677944420E0,1.665410995E-1,-3.222441673E-2,4.700851440E-2,1.760231556E-1
5.686187766E0,1.352291107E-1,-1.068270206E-2,3.771352768E-2,1.407953930E-1
5.694390689E0,1.110029221E-1,-1.066195965E-2,2.379083633E-2,1.140233747E-1
5.702594228E0,7.980346680E-2,2.313947678E-2,5.749940872E-2,1.010455872E-1
5.710821074E0,1.013698578E-1,2.332878113E-2,4.554939270E-2,1.135553930E-1
5.719024343E0,7.760429382E-2,-3.368854523E-4,3.817272186E-2,8.648523924E-2
5.727257343E0,1.232585907E-1,1.178073883E-2,5.232763290E-2,1.344233877E-1
5.735458343E0,1.354751587E-1,-1.659691334E-2,6.162166595E-2,1.497538175E-1
5.743660227E0,1.071777344E-1,-6.592988968E-3,7.305049896E-2,1.298726671E-1
5.751885612E0,1.145277023E-1,1.989376545E-2,1.039595604E-1,1.559485386E-1
5.760087920E0,1.098442078E-1,3.414869308E-3,1.038761139E-1,1.512205619E-1
5.768322497E0,7.385730743E-2,1.062834263E-2,9.920692444E-2,1.241365272E-1
5.776523958E0,7.850646973E-2,1.541256905E-2,7.547569275E-2,1.099881506E-1
5.784725266E0,6.157970428E-2,2.734076977E-2,6.614208221E-2,9.441584989E-2
5.792950535E0,5.192947388E-2,1.124858856E-3,5.431604385E-2,7.515429585E-2
5.801150881E0,4.724311829E-2,1.319587231E-2,5.897712708E-2,7.670948305E-2
5.809358804E0,7.840633392E-2,-5.803465843E-3,5.895853043E-2,9.827177481E-2
5.817559996E0,9.761619568E-2,-1.746833324E-2,8.050346375E-2,1.277296833E-1
5.825760496E0,1.215543747E-1,-1.232528687E-2,7.102680206E-2,1.413229823E-1
5.833986842E0,9.990692139E-2,-2.646303177E-2,9.278678894E-2,1.388923079E-1
5.842188381E0,1.309461594E-1,-4.699349403E-3,7.861042023E-2,1.528024172E-1
5.850452765E0,9.495830536E-2,1.220023632E-2,5.960845947E-2,1.127789606E-1
5.858655073E0,9.964942932E-2,7.491588593E-3,3.344154358E-2,1.053777467E-1
5.866858573E0,8.520412445E-2,-6.818175316E-3,3.358078003E-2,9.183626258E-2
5.875084688E0,8.282470703E-2,1.487767696E-2,3.120183945E-2,8.974871671E-2
5.883286881E0,8.770751953E-2,1.037049294E-2,4.549789429E-2,9.934895314E-2
5.891519227E0,1.164875031E-1,7.522106171E-4,5.259418488E-2,1.278125677E-1
5.899720150E0,1.165752411E-1,-6.465554237E-3,5.724048615E-2,1.300310097E-1
5.907923765E0,1.021642685E-1,7.916688919E-4,5.493593216E-2,1.160005221E-1
5.916151304E0,8.300781250E-2,-1.473903656E-3,5.976390839E-2,1.022946434E-1
5.924354265E0,8.786869049E-2,1.768016815E-2,5.247020721E-2,1.038586432E-1
5.932598919E0,1.023197174E-1,3.382205963E-3,4.517555237E-2,1.118999304E-1
5.940801457E0,1.144323349E-1,1.042485237E-3,4.736757278E-2,1.238528683E-1
5.949005265E0,1.026191711E-1,1.549041271E-2,4.714918137E-2,1.139898788E-1
5.957234150E0,1.124486923E-1,1.108884811E-3,5.633640289E-2,1.257765015E-1
5.965436034E0,1.294403076E-1,-1.324760914E-2,6.316804886E-2,1.446391883E-1
5.973644842E0,1.129064560E-1,-2.512967587E-2,5.566835403E-2,1.283679635E-1
5.981848534E0,1.058263779E-1,-3.452181816E-3,7.470035553E-2,1.295811828E-1
5.990052919E0,1.011886597E-1,1.335203648E-2,7.687759399E-2,1.277794435E-1
5.998279073E0,7.733917236E-2,8.466005325E-3,9.107303619E-2,1.197802937E-1
6.006481649E0,1.062326431E-1,-1.779913902E-2,7.647991180E-2,1.321035985E-1
6.014718303E0,1.039819717E-1,-1.296329498E-2,6.190919876E-2,1.217088590E-1
6.022921149E0,1.017675400E-1,-1.038813591E-2,4.731893539E-2,1.127103687E-1
6.031123649E0,8.758544922E-2,8.862137794E-3,6.861400604E-2,1.116137546E-1
6.039354419E0,1.140975952E-1,3.070759773E-2,7.081937790E-2,1.377555882E-1
6.047558457E0,8.070564270E-2,6.899595261E-3,6.348133087E-2,1.029120233E-1
6.055793342E0,8.303356171E-2,1.891326904E-2,7.077646255E-2,1.107320720E-1
6.063998611E0,8.299827576E-2,1.182353497E-2,6.127786636E-2,1.038435682E-1
6.072201611E0,5.666637421E-2,-9.579420090E-3,7.328128815E-2,9.312889158E-2
6.080428880E0,8.303451538E-2,1.194179058E-2,7.322549820E-2,1.113521921E-1
6.088631418E0,9.021759033E-2,-6.938457489E-3,6.611490250E-2,1.120648746E-1
6.096898918E0,9.976100922E-2,1.225471497E-2,5.420541763E-2,1.141957280E-1
6.105102803E0,1.045751572E-1,-1.139640808E-2,5.663919449E-2,1.194731768E-1
6.113307534E0,1.045608521E-1,-4.178047180E-3,6.385135651E-2,1.225863923E-1
6.121535918E0,9.965515137E-2,-1.832962036E-3,8.077526093E-2,1.282932255E-1
6.129741149E0,8.032608032E-2,2.912020683E-2,6.902599335E-2,1.098401265E-1
6.137951341E0,1.017398834E-1,1.231372356E-2,7.400512695E-2,1.264096139E-1
6.146156380E0,7.766723633E-2,2.181994915E-2,6.221532822E-2,1.018776563E-1
6.154361726E0,7.517051697E-2,2.815723419E-4,6.476640701E-2,9.922385490E-2
6.162591533E0,1.038646698E-1,2.678394318E-3,6.242990494E-2,1.212127735E-1
6.170796457E0,1.348953247E-1,-6.891489029E-3,6.497097015E-2,1.498848498E-1
6.179044149E0,1.372156143E-1,-1.651859283E-2,6.746339798E-2,1.537930388E-1
6.187248726E0,1.347093582E-1,-4.422187805E-3,7.485103607E-2,1.541714777E-1
6.195452303E0,1.106147766E-1,-6.798624992E-3,7.508754730E-2,1.338655664E-1
6.203680687E0,1.055088043E-1,4.626512527E-4,8.037996292E-2,1.326395879E-1
6.211885341E0,9.089088440E-2,5.210638046E-3,7.117700577E-2,1.155615410E-1
6.220122033E0,9.787178040E-2,4.981875420E-3,5.466222763E-2,1.122125822E-1
6.228326726E0,1.047649384E-1,1.216280460E-2,3.355646133E-2,1.106781922E-1
6.236531841E0,1.214342117E-1,4.987120628E-3,1.932859421E-2,1.230639415E-1
6.244760225E0,1.310253143E-1,-1.872897148E-3,2.657699585E-2,1.337066844E-1
6.252962995E0,1.357526779E-1,-8.831024170E-3,4.588365555E-2,1.435690997E-1
6.261197379E0,1.404666901E-1,-1.543164253E-3,4.842042923E-2,1.485860368E-1
6.269400379E0,1.451120377E-1,-1.417517662E-3,4.388284683E-2,1.516087632E-1
6.277604725E0,1.209621429E-1,2.971160412E-2,3.701686859E-2,1.299417870E-1
6.285833764E0,9.942817688E-2,2.504038811E-2,2.984523773E-2,1.067882091E-1
6.294038571E0,7.553100586E-2,1.081395149E-2,2.981710434E-2,8.192029116E-2
6.302247994E0,8.293247223E-2,2.048075199E-2,2.950620651E-2,9.037628215E-2
6.310451764E0,9.759712219E-2,6.238222122E-3,3.866147995E-2,1.051609419E-1
6.318656841E0,1.003618240E-1,1.636028290E-3,6.927108765E-2,1.219575988E-1
6.326886648E0,1.079463959E-1,1.363110542E-2,8.302879333E-2,1.368649405E-1
6.335090456E0,1.178569794E-1,8.749842644E-3,8.968019485E-2,1.483555347E-1
6.343357225E0,9.406280518E-2,2.299368382E-2,1.157574654E-1,1.509182282E-1
6.351560802E0,1.107444763E-1,2.772367001E-2,1.230430603E-1,1.678467623E-1
6.359764648E0,8.663940430E-2,3.470838070E-2,9.211492538E-2,1.311343492E-1
6.367993687E0,6.967163086E-2,2.025055885E-2,6.846332550E-2,9.975694572E-2
6.376199340E0,6.953144073E-2,2.507686615E-2,4.953336716E-2,8.897766534E-2
6.384437110E0,5.518531799E-2,-5.807161331E-3,4.478120804E-2,7.130567325E-2
6.392643148E0,8.403587341E-2,-3.423309326E-2,5.425786972E-2,1.057253476E-1
6.400848725E0,1.272621155E-1,-1.943969727E-2,6.374931335E-2,1.436576584E-1
6.409075994E0,1.154499054E-1,-2.622532845E-2,5.882549286E-2,1.322001782E-1
6.417280532E0,1.298112869E-1,-4.417061806E-3,5.890321732E-2,1.426186161E-1
6.425526225E0,1.130065918E-1,-1.618218422E-2,4.226779938E-2,1.217329854E-1
6.433730802E0,7.703590393E-2,5.652904510E-3,3.285694122E-2,8.394083875E-2
6.441934879E0,7.450199127E-2,-1.611948013E-3,3.543996811E-2,8.251749160E-2
6.450163263E0,6.250286102E-2,1.764988899E-2,3.551340103E-2,7.402248220E-2
6.458368878E0,6.731510162E-2,2.956974506E-2,5.222177505E-2,9.018207427E-2
6.466578609E0,6.732273102E-2,1.536822319E-2,5.704355240E-2,8.956840551E-2
6.474782455E0,9.367942810E-2,8.291244507E-3,5.225038528E-2,1.075856995E-1
6.482986455E0,1.224479675E-1,3.610253334E-3,8.095169067E-2,1.468322679E-1
6.491213648E0,1.271944046E-1,1.073610783E-2,8.339595795E-2,1.524748057E-1
6.499415917E0,9.823703766E-2,2.253723145E-2,8.369541168E-2,1.310090238E-1
6.507651532E0,1.100111008E-1,7.358789444E-4,8.871746063E-2,1.413285945E-1
6.515854917E0,1.003074646E-1,5.263686180E-3,6.489515305E-2,1.195854286E-1
6.524057340E0,7.857322693E-2,1.225316525E-2,4.118776321E-2,8.955626102E-2
6.532283071E0,8.808040619E-2,-6.897807121E-3,3.171539307E-2,9.387014358E-2
6.540484109E0,1.072816849E-1,5.114436150E-3,3.404855728E-2,1.126712990E-1
6.548719109E0,1.169481277E-1,-6.681680679E-3,4.592990875E-2,1.258215640E-1
6.556923609E0,1.314039230E-1,-6.649374962E-3,6.016588211E-2,1.446759778E-1
6.565127647E0,1.291456223E-1,-2.091288567E-2,7.674694061E-2,1.516773992E-1
6.573355455E0,1.268205643E-1,-8.706569672E-3,8.388566971E-2,1.523025458E-1
6.581559878E0,1.101455688E-1,-3.709554672E-3,6.226682663E-2,1.265818503E-1
6.589827455E0,8.380126953E-2,-1.111745834E-3,6.472873688E-2,1.058947503E-1
6.598031763E0,8.375167847E-2,1.822447777E-2,5.527687073E-2,1.019902332E-1
6.606235993E0,7.413959503E-2,1.101136208E-2,4.335117340E-2,8.658668420E-2
6.614464032E0,9.327793121E-2,8.703470230E-3,5.297422409E-2,1.076233769E-1
6.622668262E0,1.029529572E-1,4.070878029E-3,5.526065826E-2,1.169171663E-1
6.630877262E0,1.150169373E-1,2.103722095E-2,7.193470001E-2,1.372809586E-1
6.639079993E0,1.149454117E-1,2.110850811E-2,6.727504730E-2,1.348478727E-1
6.647282262E0,9.330081940E-2,1.619350910E-2,6.260061264E-2,1.135170002E-1
6.655506839E0,1.195993423E-1,1.851236820E-2,8.179044724E-2,1.460698043E-1
6.663708224E0,1.004171371E-1,2.318191528E-2,5.067825317E-2,1.148446254E-1
6.671949801E0,1.051464081E-1,2.548193932E-2,6.750154495E-2,1.275208020E-1
6.680152224E0,8.122920990E-2,1.578772068E-2,4.588365555E-2,9.461895429E-2
6.688355570E0,9.546756744E-2,2.299213409E-2,6.044769287E-2,1.153109632E-1
6.696584570E0,1.003265381E-1,6.188631058E-3,7.948017120E-2,1.281437123E-1
6.704787454E0,1.242370605E-1,1.820695400E-2,6.757307053E-2,1.425919361E-1
6.713021954E0,1.051197052E-1,6.282448769E-3,5.316400528E-2,1.179662369E-1
6.721223224E0,1.051797867E-1,3.818988800E-3,5.066061020E-2,1.168069759E-1
6.729424954E0,1.028718948E-1,1.342058182E-2,5.053329468E-2,1.153965018E-1
6.737651839E0,1.053876877E-1,-8.215069771E-3,3.835439682E-2,1.124504862E-1
6.745856147E0,8.176136017E-2,-1.051604748E-2,5.944919586E-2,1.016352014E-1
6.754092916E0,9.158229828E-2,-1.766335964E-2,5.190372467E-2,1.067394410E-1
6.762297300E0,9.909629822E-2,-1.263129711E-2,6.104040146E-2,1.170707333E-1
6.770500300E0,1.112957001E-1,-1.005744934E-2,5.595254898E-2,1.249742889E-1
6.778726300E0,1.018533707E-1,-2.829670906E-3,5.815410614E-2,1.173201441E-1
6.786930839E0,1.019210815E-1,-2.687335014E-3,7.006120682E-2,1.237081296E-1
6.795140300E0,7.811641693E-2,-1.213896275E-2,6.030845642E-2,9.943157912E-2
6.803343954E0,9.485626221E-2,-1.698100567E-2,5.793190002E-2,1.124374051E-1
6.811546916E0,9.010982513E-2,1.181697845E-2,6.985521317E-2,1.146262290E-1
6.819775262E0,9.016132355E-2,-1.935184002E-2,5.539846420E-2,1.075757771E-1
6.827979185E0,9.036159515E-2,-4.604578018E-3,5.280399323E-2,1.047601151E-1
6.836245954E0,9.273529053E-2,-2.590501308E-2,6.726694107E-2,1.174552901E-1
6.844449069E0,1.190452576E-1,-1.611876488E-2,6.496715546E-2,1.365734938E-1
6.852652723E0,1.357240677E-1,-2.093279362E-2,4.114341736E-2,1.433596358E-1
6.860880146E0,1.258831024E-1,5.157351494E-3,5.105543137E-2,1.359404679E-1
6.869084415E0,8.973217010E-2,1.235413551E-2,6.099605560E-2,1.092016750E-1
6.877320800E0,7.039070129E-2,9.893417358E-3,4.211330414E-2,8.262118930E-2
6.885526300E0,7.038593292E-2,3.404104710E-2,4.456853867E-2,8.999626148E-2
6.893731069E0,9.203910828E-2,2.698099613E-2,3.486633301E-2,1.020530881E-1
6.901958723E0,1.042728424E-1,1.997041702E-2,4.648160934E-2,1.158972960E-1
6.910163838E0,1.141519547E-1,1.782286167E-2,7.960844040E-2,1.403061899E-1
6.918409031E0,1.287612915E-1,2.964043617E-2,7.919454575E-2,1.540448043E-1
6.926612838E0,1.169128418E-1,2.714002132E-2,9.813356400E-2,1.550335116E-1
6.934814223E0,1.144170761E-1,4.605817795E-2,1.101951599E-1,1.653952730E-1
6.943040684E0,9.989833832E-2,3.617751598E-2,9.837579727E-2,1.447974038E-1
6.951243492E0,5.422782898E-2,1.684832573E-2,5.550861359E-2,7.940862483E-2
6.959452338E0,5.649662018E-2,3.587973118E-2,3.411722183E-2,7.512128877E-2
6.967655838E0,7.325172424E-2,1.669955254E-2,3.172445297E-2,8.155446693E-2
6.975860107E0,1.115980148E-1,3.218650818E-6,5.083465576E-2,1.226306615E-1
6.984089300E0,1.092834473E-1,5.120635033E-3,6.516599655E-2,1.273408805E-1
6.992293492E0,1.310176849E-1,-8.953452110E-3,5.538511276E-2,1.425247655E-1
7.000531530E0,1.359386444E-1,9.080171585E-4,7.680845261E-2,1.561399306E-1
7.008736799E0,1.407270432E-1,-1.331746578E-2,6.487512589E-2,1.555321109E-1
7.016942223E0,1.072015762E-1,-1.561343670E-2,5.533456802E-2,1.216465033E-1
7.025170876E0,9.994029999E-2,-1.778376102E-2,3.636074066E-2,1.078259207E-1
7.033375530E0,6.160449982E-2,-1.061403751E-2,3.400611877E-2,7.116311056E-2
7.041610299E0,8.797740936E-2,-3.338932991E-3,4.115867615E-2,9.718646847E-2
7.049814453E0,9.774208069E-2,-1.988077164E-2,4.811573029E-2,1.107424170E-1
7.058018645E0,1.121978760E-1,-1.255762577E-2,5.040979385E-2,1.236414358E-1
7.066247684E0,1.050958633E-1,9.081125259E-3,6.228065491E-2,1.225009686E-1
7.074451799E0,9.791469574E-2,2.595925331E-2,7.188701630E-2,1.242131780E-1
7.082719838E0,1.122140884E-1,6.909728050E-3,7.201623917E-2,1.335143614E-1
7.090924876E0,1.026010513E-1,3.095746040E-2,6.970405579E-2,1.278436368E-1
7.099130799E0,8.571815491E-2,1.412892342E-2,6.748151779E-2,1.100044717E-1
7.107358953E0,8.807659149E-2,1.413297653E-2,5.317211151E-2,1.038484494E-1
7.115564068E0,1.144342422E-1,1.162040234E-2,5.789566040E-2,1.287716469E-1
7.123774991E0,8.342170715E-2,6.844997406E-3,5.293893814E-2,9.903820669E-2
7.131980030E0,1.004219055E-1,2.835476398E-2,5.734920502E-2,1.190692364E-1
7.140185222E0,1.077213287E-1,6.802797318E-3,7.632493973E-2,1.321955337E-1
7.148415222E0,1.078252792E-1,1.613759995E-2,5.695009232E-2,1.230041706E-1
7.156618260E0,1.102600098E-1,-7.958054543E-3,6.642055511E-2,1.289662379E-1
7.164863645E0,1.245832443E-1,6.191015244E-3,7.361125946E-2,1.448376020E-1
7.173067953E0,9.815597534E-2,-1.548647881E-2,6.413745880E-2,1.182710452E-1
7.181271991E0,1.099205017E-1,-1.303577423E-2,4.770708084E-2,1.205338694E-1
7.189501568E0,8.811664581E-2,2.055215836E-2,6.487607956E-2,1.113366076E-1
7.197706068E0,8.805561066E-2,-1.005411148E-3,4.820632935E-2,1.003924878E-1
7.205942491E0,1.024742126E-1,2.542006969E-2,6.011915207E-2,1.214967351E-1
7.214148414E0,8.340454102E-2,8.774757385E-3,6.241655350E-2,1.045425271E-1
7.222353376E0,1.001052856E-1,6.501555443E-3,6.732749939E-2,1.208152747E-1
7.230581914E0,1.047811508E-1,-2.918958664E-3,6.275177002E-2,1.221695319E-1
7.238786645E0,1.142644882E-1,1.144456863E-2,7.247018814E-2,1.357913090E-1
7.247023145E0,9.260463715E-2,9.085178375E-3,5.828571320E-2,1.097970111E-1
7.255227760E0,1.236886978E-1,1.145458221E-2,5.833959579E-2,1.372355998E-1
7.263430606E0,1.140184402E-1,2.812814713E-2,7.282304764E-2,1.381831887E-1
7.271657798E0,9.715747833E-2,6.332874298E-3,7.770204544E-2,1.245684100E-1
7.279860375E0,1.065683365E-1,8.855938911E-3,5.165433884E-2,1.187577733E-1
7.288069568E0,1.016521454E-1,8.773803711E-3,5.661439896E-2,1.166847396E-1
7.296274260E0,1.015148163E-1,2.081501484E-2,5.205631256E-2,1.159671611E-1
7.304477491E0,9.657859802E-2,1.831769943E-2,5.225038528E-2,1.113241504E-1
7.312703568E0,8.205127716E-2,-3.294587135E-3,4.290294647E-2,9.264949651E-2
7.320905683E0,9.634876251E-2,1.092875004E-2,5.972862244E-2,1.138860393E-1
7.329171375E0,8.927536011E-2,-3.448724747E-3,5.716323853E-2,1.060642233E-1
7.337374067E0,9.656143188E-2,1.395463943E-3,5.941677094E-2,1.133861108E-1
7.345574337E0,1.229019165E-1,-1.537525654E-2,6.898117065E-2,1.417733455E-1
7.353799606E0,9.890747070E-2,-5.954504013E-3,7.620191574E-2,1.249995034E-1
7.362001606E0,1.276168823E-1,1.059806347E-2,6.899738312E-2,1.454614261E-1
7.370235106E0,1.155014038E-1,3.411531448E-3,7.879114151E-2,1.398579880E-1
7.378435029E0,1.032371521E-1,-1.105797291E-2,6.005477905E-2,1.199448408E-1
7.386637413E0,8.146286011E-2,-1.711130142E-3,4.836988449E-2,9.475637851E-2
7.394864529E0,9.812831879E-2,7.779121399E-3,3.172922134E-2,1.034235233E-1
7.403068260E0,1.004371643E-1,-6.689190865E-3,2.943754196E-2,1.048758224E-1
7.411312606E0,1.101007462E-1,-3.060340881E-2,3.649520874E-2,1.199610070E-1
7.419513452E0,1.460256577E-1,-6.663680077E-3,3.408098221E-2,1.500980036E-1
7.427713798E0,1.461915970E-1,-2.114117146E-2,5.774164200E-2,1.585970661E-1
7.435939182E0,1.462182999E-1,4.831075668E-3,5.520677567E-2,1.563678950E-1
7.444141067E0,1.175041199E-1,3.075909615E-2,4.789161682E-2,1.305639581E-1
7.452349913E0,1.055736542E-1,3.271555901E-2,5.968332291E-2,1.256113183E-1
7.460551567E0,6.722259521E-2,2.500939369E-2,4.524517059E-2,8.480255033E-2
7.468754182E0,7.456302643E-2,3.179907799E-3,4.253101349E-2,8.589903278E-2
7.476980259E0,7.241821289E-2,-1.613306999E-2,4.689788818E-2,8.777291964E-2
7.485182336E0,1.253499985E-1,-9.094357491E-3,4.167652130E-2,1.324094479E-1
7.493418259E0,1.327886581E-1,4.377365112E-4,7.479286194E-2,1.524040404E-1
7.501621567E0,1.090402603E-1,2.460479736E-4,8.881282806E-2,1.406327037E-1
7.509825951E0,1.044044495E-1,2.336502075E-5,1.100659370E-1,1.517062956E-1
7.518054605E0,1.139745712E-1,2.144980431E-2,9.567928314E-2,1.503490014E-1
7.526259528E0,6.595039368E-2,3.310728073E-2,8.623027802E-2,1.134954066E-1
7.534496874E0,5.381870270E-2,2.326738834E-2,6.485986710E-2,8.743355466E-2
7.542703028E0,5.374336243E-2,-1.030981541E-2,5.537891388E-2,7.785541343E-2
7.550908836E0,3.922080994E-2,-1.785790920E-2,5.073165894E-2,6.656484111E-2
7.559136374E0,5.600070953E-2,-1.798629761E-2,4.108953476E-2,7.174912011E-2
7.567340682E0,1.063976288E-1,-2.744424343E-2,5.530643463E-2,1.230139977E-1
7.575608528E0,1.208362579E-1,-2.490293980E-2,6.481122971E-2,1.393630264E-1
7.583813528E0,1.281175613E-1,-1.754796505E-2,6.949520111E-2,1.468047124E-1
7.592018720E0,1.306180954E-1,-3.352761269E-3,7.407426834E-2,1.501976201E-1
7.600245066E0,1.066675186E-1,8.417606354E-3,6.206464767E-2,1.236965485E-1
7.608449951E0,1.018514633E-1,2.506899834E-2,5.010604858E-2,1.162445326E-1
7.616659643E0,9.697818756E-2,1.785171032E-2,3.346729279E-2,1.041321858E-1
7.624862220E0,7.542896271E-2,1.297926903E-2,4.062843323E-2,8.665252118E-2
7.633064528E0,7.544231415E-2,2.728581429E-2,5.974674225E-2,1.000286541E-1
7.641289682E0,1.089477539E-1,2.000784874E-2,5.974102020E-2,1.258527576E-1
7.649492759E0,9.696292877E-2,1.042985916E-2,7.173252106E-2,1.210625710E-1
7.657737335E0,1.207408905E-1,1.027131081E-2,5.278587341E-2,1.321749254E-1
7.665939643E0,1.182365417E-1,1.487457752E-2,6.008672714E-2,1.334599102E-1
7.674141989E0,1.180858612E-1,3.150022030E-2,6.985521317E-2,1.407703282E-1
7.682368874E0,9.171962738E-2,1.003181934E-2,5.555725098E-2,1.077020686E-1
7.690571181E0,8.930492401E-2,-1.853585243E-3,4.364299774E-2,9.941587641E-2
7.698804835E0,1.013660431E-1,-1.942396164E-3,4.348134995E-2,1.103153452E-1
7.707008451E0,9.659385681E-2,2.801775932E-3,5.541563034E-2,1.113962082E-1
7.715213528E0,9.667110443E-2,-3.069591522E-2,6.248664856E-2,1.191306967E-1
7.723441489E0,1.014595032E-1,-2.603018284E-2,6.724214554E-2,1.244713113E-1
7.731644720E0,1.134452820E-1,-1.170039177E-2,6.960296631E-2,1.336087725E-1
7.739878874E0,8.942413330E-2,1.694571972E-2,7.209587097E-2,1.161104976E-1
7.748080989E0,1.014137268E-1,5.084872246E-3,5.533885956E-2,1.156416417E-1
7.756282681E0,8.928298950E-2,1.207554340E-2,5.074071884E-2,1.034016030E-1
7.764508143E0,9.880352020E-2,2.144920826E-2,3.640460968E-2,1.074592934E-1
7.772709104E0,1.251153946E-1,1.186883450E-2,4.841327667E-2,1.346795328E-1
7.780916989E0,1.132783890E-1,4.846692085E-3,5.543375015E-2,1.262077038E-1
7.789120566E0,1.229181290E-1,-1.398921013E-2,6.260824203E-2,1.386519253E-1
7.797323566E0,1.205892563E-1,1.462852955E-2,7.205438614E-2,1.412359627E-1
7.805551604E0,1.157827377E-1,1.000666618E-2,6.255197525E-2,1.319792610E-1
7.813755066E0,1.086168289E-1,5.284070969E-3,4.099559784E-2,1.162160745E-1
7.822020566E0,1.038694382E-1,7.190704346E-4,5.775070190E-2,1.188466273E-1
7.830223950E0,7.752704620E-2,7.356405258E-4,4.340076447E-2,8.885162022E-2
7.838427104E0,1.039314270E-1,1.037037373E-2,5.528306961E-2,1.181757334E-1
7.846655104E0,8.003044128E-2,8.723735809E-4,5.284643173E-2,9.590817439E-2
7.854858335E0,9.678936005E-2,-1.098608971E-2,5.287885666E-2,1.108379351E-1
7.863096219E0,1.255207062E-1,-1.253843307E-3,4.573774338E-2,1.336000036E-1
7.871300988E0,1.063966751E-1,8.399963379E-3,5.768299103E-2,1.213183387E-1
7.879505565E0,1.063928604E-1,-1.305139065E-2,5.292844772E-2,1.195458076E-1
7.887733104E0,9.203815460E-2,-3.292441368E-3,5.295944214E-2,1.062382445E-1
7.895937565E0,8.494377136E-2,-1.280057430E-2,5.044889450E-2,9.962123244E-2
7.904183065E0,9.465122223E-2,1.360392570E-2,5.505609512E-2,1.103408097E-1
7.912385373E0,1.020069122E-1,-6.661415100E-4,5.960845947E-2,1.181483065E-1
7.920589758E0,8.542346954E-2,-6.209611893E-4,5.695819855E-2,1.026732250E-1
7.928819565E0,8.311748505E-2,-6.490945816E-4,5.681657791E-2,1.006829736E-1
7.937022642E0,1.071462631E-1,-1.982939243E-2,6.864881516E-2,1.287873687E-1
7.945233873E0,1.071825027E-1,-1.468527317E-2,6.390094757E-2,1.256466364E-1
7.953437180E0,9.525680542E-2,-1.436257362E-2,5.673551559E-2,1.117992005E-1
7.961642065E0,1.118726730E-1,-9.436249733E-3,5.220365524E-2,1.238134056E-1
7.969869373E0,9.037399292E-2,9.910821915E-3,6.415224075E-2,1.112708092E-1
7.978072257E0,1.119480133E-1,5.371093750E-3,6.418037415E-2,1.291523393E-1
7.986310834E0,1.192312241E-1,-8.800387383E-3,5.928802490E-2,1.334488723E-1
7.994516488E0,1.264867783E-1,-8.734822273E-3,5.680036545E-2,1.389297798E-1
8.002722103E0,1.337070465E-1,-1.428484917E-3,4.001522064E-2,1.395737538E-1
8.010951911E0,1.144018173E-1,-8.587718010E-3,4.025363922E-2,1.215807558E-1
8.019156719E0,7.822799683E-2,-1.586103439E-2,3.823232651E-2,8.850368744E-2
8.027392026E0,6.846714020E-2,-3.901600838E-3,6.245279312E-2,9.275410042E-2
8.035596142E0,8.506488800E-2,-6.248235703E-3,6.510639191E-2,1.073029258E-1
8.043800296E0,8.742332458E-2,-1.213669777E-3,5.325460434E-2,1.023736468E-1
8.052027526E0,1.090469360E-1,6.200432777E-3,4.123067856E-2,1.167460855E-1
8.060231719E0,1.042938232E-1,4.087686539E-3,4.604291916E-2,1.140783115E-1
8.068499834E0,1.259431839E-1,1.897931099E-3,6.509780884E-2,1.417850924E-1
8.076703257E0,1.376886368E-1,8.994579315E-3,9.174871445E-2,1.657012063E-1
8.084906411E0,1.183662415E-1,1.377511024E-2,9.200382233E-2,1.505490754E-1
8.093135680E0,8.928871155E-2,1.617920399E-2,7.099151611E-2,1.152130028E-1
8.101339488E0,9.854030609E-2,3.291726112E-2,5.711364746E-2,1.185567659E-1
8.109549334E0,5.028438568E-2,3.042411804E-2,4.328918457E-2,7.299383469E-2
8.117754488E0,8.111858368E-2,1.845741272E-2,4.612684250E-2,9.512405743E-2
8.125958795E0,9.039783478E-2,1.922369003E-3,4.903459549E-2,1.028584250E-1
8.134187949E0,8.568668365E-2,1.430881023E-2,4.663610458E-2,9.859957432E-2
8.142394372E0,1.288805008E-1,-9.428262711E-3,4.414844513E-2,1.365582690E-1
8.150641834E0,1.191434860E-1,-2.356004715E-2,5.403184891E-2,1.329273741E-1
8.158848180E0,1.143732071E-1,-1.844251156E-2,7.085180283E-2,1.357988759E-1
8.167054180E0,1.094675064E-1,1.051068306E-3,7.590961456E-2,1.332160249E-1
8.175283872E0,1.141366959E-1,-3.565430641E-3,7.374334335E-2,1.359337277E-1
8.183487487E0,9.006404877E-2,-1.309823990E-2,7.395648956E-2,1.172717320E-1
8.191723680E0,1.067132950E-1,-2.243888378E-2,6.221580505E-2,1.255469523E-1
8.199926487E0,9.468650818E-2,-1.998758316E-2,5.273962021E-2,1.102111875E-1
8.208129372E0,9.948730469E-2,-1.020455360E-2,5.038118362E-2,1.119826789E-1
8.216357064E0,1.187705994E-1,1.143705845E-2,3.584384918E-2,1.245874918E-1
8.224561141E0,1.067419052E-1,-5.460619926E-3,5.025959015E-2,1.181087596E-1
8.232799795E0,1.069145203E-1,1.111042500E-2,5.473327637E-2,1.206229154E-1
8.241003602E0,1.094341278E-1,-1.286637783E-2,5.213928223E-2,1.219010942E-1
8.249205218E0,1.142492294E-1,1.490950584E-3,4.012632370E-2,1.211000876E-1
8.257431372E0,1.072206497E-1,-8.230209351E-3,4.942893982E-2,1.183521194E-1
8.265635372E0,1.049842834E-1,-1.066029072E-2,2.763080597E-2,1.090816346E-1
8.273844718E0,9.559249878E-2,-8.365988731E-3,3.211116791E-2,1.011881549E-1
8.282050372E0,1.101236343E-1,-2.521979809E-2,3.901576996E-2,1.195218949E-1
8.290255448E0,1.103544235E-1,-1.070833206E-2,4.588556290E-2,1.199927166E-1
8.298484141E0,1.200952530E-1,-2.271318436E-2,5.280923843E-2,1.331449368E-1
8.306688295E0,9.879112244E-2,-1.559948921E-2,5.002498627E-2,1.118281234E-1
8.314957256E0,1.014270782E-1,-3.479087353E-2,6.401348114E-2,1.248822760E-1
8.323162410E0,1.088962555E-1,-3.481888771E-2,6.835746765E-2,1.332047026E-1
8.331368910E0,1.066942215E-1,-8.635044098E-3,4.408121109E-2,1.157643039E-1
8.339598333E0,9.955501556E-2,-1.586318016E-3,4.158401489E-2,1.079024922E-1
8.347803141E0,9.250259399E-2,-1.610970497E-2,5.331563950E-2,1.079759691E-1
8.356038948E0,7.105255127E-2,-1.858961582E-2,6.511449814E-2,9.815261956E-2
8.364243448E0,7.841014862E-2,2.855658531E-3,5.284881592E-2,9.460075865E-2
8.372447179E0,6.905269623E-2,-1.876056194E-2,6.925630569E-2,9.958247546E-2
8.380675025E0,9.327507019E-2,1.004910469E-2,6.645774841E-2,1.149689330E-1
8.388880140E0,1.029253006E-1,-1.374578476E-2,8.314514160E-2,1.330251054E-1
8.397127871E0,1.101102829E-1,-1.849532127E-2,9.033203125E-2,1.436183386E-1
8.405333871E0,9.327888489E-2,-2.085185051E-2,8.566617966E-2,1.283528121E-1
8.413538525E0,8.599758148E-2,1.253032684E-2,7.380628586E-2,1.140173712E-1
8.421769640E0,9.770107269E-2,9.872555733E-3,6.935405731E-2,1.202204318E-1
8.429976063E0,8.793258667E-2,1.213681698E-2,6.721782684E-2,1.113448623E-1
8.438189409E0,9.016704559E-2,2.165603638E-2,5.786657333E-2,1.093051707E-1
8.446394871E0,9.478378296E-2,-1.209139824E-2,6.046199799E-2,1.130744030E-1
8.454602755E0,9.699726105E-2,2.271533012E-3,5.355405807E-2,1.108226766E-1
8.462832832E0,8.477210999E-2,-7.428407669E-3,7.066631317E-2,1.106129273E-1
8.471039525E0,9.897899628E-2,1.392805576E-2,7.564401627E-2,1.253509060E-1
8.479277486E0,1.299734116E-1,-1.735901833E-2,6.382608414E-2,1.458361829E-1
8.487483255E0,1.153688431E-1,-1.995766163E-2,3.779888153E-2,1.230326528E-1
8.495689332E0,1.463470459E-1,-1.048684120E-2,3.799390793E-2,1.515617654E-1
8.503918563E0,1.221828461E-1,-4.160392284E-2,2.875852585E-2,1.322368598E-1
8.512123832E0,1.005296707E-1,-5.904912949E-3,5.998754501E-2,1.172159897E-1
8.520361101E0,9.080982208E-2,-1.572966576E-2,2.662038803E-2,9.592961602E-2
8.528567140E0,9.324073792E-2,-1.466274261E-3,4.090023041E-2,1.018273736E-1
8.536772371E0,1.053867340E-1,1.062595844E-2,4.784917831E-2,1.162274432E-1
8.545001024E0,1.198310852E-1,-1.307487488E-3,5.013322830E-2,1.299020365E-1
8.553205294E0,1.438493729E-1,3.572583199E-3,6.201124191E-2,1.566869476E-1
8.561473101E0,1.461477280E-1,3.216862679E-3,4.769515991E-2,1.537671450E-1
8.569676870E0,1.483192444E-1,1.713371277E-2,3.115510941E-2,1.525214844E-1
8.577881717E0,1.289968491E-1,9.745001793E-3,2.896308899E-2,1.325670119E-1
8.586108870E0,1.024150848E-1,1.192271709E-2,2.209520340E-2,1.054476116E-1
8.594312947E0,8.788108826E-2,2.372384071E-2,3.188562393E-2,9.644998344E-2
8.602523793E0,9.749889374E-2,1.405692101E-2,4.376888275E-2,1.077930722E-1
8.610727293E0,1.024484634E-1,1.173973083E-2,5.312156677E-2,1.159974560E-1
8.618930832E0,9.793663025E-2,-4.872560501E-3,6.710433960E-2,1.188205276E-1
8.627157486E0,1.126174927E-1,7.110476494E-3,7.620429993E-2,1.361629680E-1
8.635361409E0,9.836769104E-2,-2.510428429E-3,8.798694611E-2,1.320007863E-1
8.643606293E0,8.398723602E-2,-5.070447922E-3,8.796548843E-2,1.217271227E-1
8.651810062E0,8.384704590E-2,6.675004959E-3,9.051179886E-2,1.235607888E-1
8.660013370E0,6.216049194E-2,1.364302635E-2,8.587694168E-2,1.068873615E-1
8.668241678E0,5.960273743E-2,-1.768267155E-2,6.931161880E-2,9.310888080E-2
8.676445370E0,5.702877045E-2,1.345431805E-2,6.719779968E-2,8.915628758E-2
8.684680562E0,7.607078552E-2,-1.546442509E-2,7.449960709E-2,1.075923060E-1
8.692884485E0,9.984302521E-2,-3.466916084E-2,4.122447968E-2,1.134461904E-1
8.701087985E0,9.968185425E-2,-1.178264618E-3,4.625082016E-2,1.098953991E-1
8.709314255E0,1.235160828E-1,-2.496266365E-2,5.364179611E-2,1.369554656E-1
8.717516716E0,1.400794983E-1,-1.058840752E-2,5.154800415E-2,1.496381534E-1
8.725752485E0,1.088275909E-1,-1.059472561E-2,3.258466721E-2,1.140940546E-1
8.733956216E0,9.184074402E-2,-2.739930153E-2,4.489088058E-2,1.058330532E-1
8.742160524E0,8.940219879E-2,-5.872130394E-3,3.537654877E-2,9.632619201E-2
8.750387870E0,7.737350464E-2,-2.503073215E-2,4.264545441E-2,9.182500506E-2
8.758590024E0,7.976531982E-2,3.658771515E-3,3.306055069E-2,8.642275665E-2
8.766800177E0,1.157283783E-1,-8.158326149E-3,4.020833969E-2,1.227856930E-1
8.775004139E0,9.896564484E-2,1.335322857E-2,5.456972122E-2,1.137996575E-1
8.783208177E0,1.085491180E-1,1.352560520E-2,4.502916336E-2,1.182940344E-1
8.791435062E0,1.206159592E-1,-1.743662357E-2,6.168508530E-2,1.365917098E-1
8.799638446E0,9.652900696E-2,-3.244161606E-3,7.861948013E-2,1.245367272E-1
8.807906639E0,1.083688736E-1,-5.776166916E-3,4.287004471E-2,1.166834076E-1
8.816109677E0,1.131038666E-1,1.081335545E-2,4.530000687E-2,1.223172266E-1
8.824313908E0,8.669281006E-2,9.056329727E-4,2.856445312E-2,9.128193397E-2
8.832541639E0,1.059541702E-1,-8.661031723E-3,4.516267776E-2,1.155031044E-1
8.840745639E0,1.037559509E-1,-2.554214001E-2,3.525590897E-2,1.125196756E-1
8.848982485E0,1.231126785E-1,-3.718841076E-2,3.742933273E-2,1.339427656E-1
8.857185331E0,1.041126251E-1,-5.142080784E-2,7.314109802E-2,1.372339550E-1
8.865388485E0,1.162128448E-1,-4.904997349E-2,4.660081863E-2,1.344729025E-1
8.873614100E0,1.329936981E-1,-2.540814877E-2,3.930759430E-2,1.409893072E-1
8.881815831E0,1.283426285E-1,-2.311205864E-2,4.625606537E-2,1.383677026E-1
8.890059638E0,1.211709976E-1,-2.324700356E-2,5.098772049E-2,1.335012415E-1
8.898261177E0,9.016704559E-2,-8.996129036E-3,2.922630310E-2,9.521136089E-2
8.906462100E0,9.260749817E-2,-2.342939377E-2,4.589653015E-2,1.059791333E-1
8.914687408E0,9.507465363E-2,-1.913189888E-3,5.775070190E-2,1.112564318E-1
8.922888869E0,1.047248840E-1,-2.355432510E-2,3.845882416E-2,1.140227553E-1
8.931096677E0,1.024227142E-1,-2.349781990E-2,4.551601410E-2,1.145175422E-1
8.939299138E0,1.097240448E-1,-1.863002777E-2,6.690549850E-2,1.298568045E-1
8.947501792E0,1.194095612E-1,-6.813168526E-3,6.190776825E-2,1.346760347E-1
8.955727907E0,1.338109970E-1,-1.422309875E-2,6.897544861E-2,1.512127375E-1
8.963929984E0,1.003541946E-1,-2.148461342E-2,7.604026794E-2,1.277289135E-1
8.972165292E0,9.074974060E-2,-3.409385681E-5,8.324193954E-2,1.231451870E-1
8.980367638E0,8.824825287E-2,1.898670197E-2,7.618522644E-2,1.181204373E-1
8.988571215E0,7.616329193E-2,3.321897984E-2,6.914091110E-2,1.080963147E-1
8.996800600E0,9.270286560E-2,4.338264465E-3,8.619356155E-2,1.266569062E-1
9.005003907E0,7.100296021E-2,1.605880260E-2,8.157110214E-2,1.093304633E-1
9.013240907E0,9.004878998E-2,1.118361950E-2,6.494951248E-2,1.115898611E-1
9.021445484E0,9.714794159E-2,1.834857464E-2,7.704353333E-2,1.253399329E-1
9.029649830E0,1.067113876E-1,-5.799770355E-3,6.503963470E-2,1.251044031E-1
9.037877292E0,1.139173508E-1,3.550052643E-3,6.015253067E-2,1.288723889E-1
9.046081292E0,9.491634369E-2,1.064860821E-2,5.750513077E-2,1.114869733E-1
9.054349522E0,9.974002838E-2,5.639433861E-3,4.781389236E-2,1.107521773E-1
9.062554215E0,9.973144531E-2,-1.370298862E-2,5.256605148E-2,1.135663808E-1
9.070757599E0,1.020221710E-1,-1.876533031E-2,5.264949799E-2,1.163298356E-1
9.078985368E0,9.246063232E-2,-2.608644962E-2,6.455850601E-2,1.157465856E-1
9.087188715E0,1.187400818E-1,-3.343510628E-2,5.981349945E-2,1.370940118E-1
9.095398022E0,1.067037582E-1,-2.643179893E-2,3.592205048E-2,1.156491493E-1
9.103602830E0,1.018848419E-1,-1.936006546E-2,4.551553726E-2,1.132563344E-1
9.111807407E0,1.018972397E-1,-2.187120914E-2,4.067945480E-2,1.118758923E-1
9.120038984E0,1.282081604E-1,-4.828751087E-2,4.308986664E-2,1.436166867E-1
9.128242253E0,1.352920532E-1,-5.304181576E-2,4.085445404E-2,1.509518476E-1
9.136489138E0,1.375589371E-1,-3.900647163E-2,4.574823380E-2,1.501228393E-1
9.144694176E0,1.182785034E-1,-3.449630737E-2,3.868246078E-2,1.291361002E-1
9.152899176E0,1.134777069E-1,-2.509057522E-2,1.710891724E-2,1.174710261E-1
9.161128253E0,9.189033508E-2,-2.762389183E-2,2.910470963E-2,1.002696225E-1
9.169333176E0,9.447002411E-2,-2.047753334E-2,2.162837982E-2,9.905403394E-2
9.177569445E0,9.469795227E-2,-1.809287071E-2,2.606678009E-2,9.987257461E-2
9.185774753E0,1.070308685E-1,-1.573204994E-2,4.944801331E-2,1.189462493E-1
9.193981137E0,1.241235733E-1,-3.244292736E-2,6.332015991E-2,1.430686815E-1
9.202209291E0,1.245012283E-1,-2.778589725E-2,7.468128204E-2,1.478171365E-1
9.210414983E0,1.486558914E-1,-2.789604664E-2,8.390331268E-2,1.729639539E-1
9.218653176E0,1.296319962E-1,5.392909050E-3,8.125257492E-2,1.530866383E-1
9.226858714E0,9.836864471E-2,-6.933093071E-3,6.460666656E-2,1.178918123E-1
9.235066329E0,6.955623627E-2,1.672124863E-2,5.747127533E-2,9.176392345E-2
9.243298906E0,6.473064423E-2,-1.668930054E-4,5.031204224E-2,8.198405790E-2
9.251505406E0,6.249237061E-2,-2.188742161E-2,5.242204666E-2,8.445369491E-2
9.259716599E0,5.299568176E-2,-2.452242374E-2,4.744720459E-2,7.524047299E-2
9.267922214E0,8.430671692E-2,-4.846215248E-2,6.631612778E-2,1.177031501E-1
9.276127752E0,8.450794220E-2,-2.933394909E-2,8.755159378E-2,1.251693031E-1
9.284358291E0,1.133747101E-1,-1.493966579E-2,8.256435394E-2,1.410457055E-1
9.292563522E0,1.230249405E-1,-3.200852871E-2,8.715820312E-2,1.541305754E-1
9.300832368E0,9.897327423E-2,-1.562750340E-2,6.567573547E-2,1.198049669E-1
9.309037252E0,1.035203934E-1,-1.592242718E-2,4.920434952E-2,1.157197630E-1
9.317241829E0,8.174228668E-2,2.418577671E-2,5.418634415E-2,1.010094704E-1
9.325471175E0,5.526256561E-2,-2.568721771E-3,6.147432327E-2,8.270212761E-2
9.333677021E0,5.995559692E-2,6.654977798E-3,5.194997787E-2,7.961006553E-2
9.341913291E0,1.077461243E-1,-5.762219429E-3,4.478740692E-2,1.168261199E-1
9.350118367E0,1.004505157E-1,1.805686951E-2,5.690097809E-2,1.168506652E-1
9.358324021E0,1.243782043E-1,3.574013710E-3,6.407403946E-2,1.399578287E-1
9.366552790E0,1.170654297E-1,5.594730377E-3,6.416988373E-2,1.336165776E-1
9.374758252E0,1.193685532E-1,1.495420933E-2,8.340644836E-2,1.463868693E-1
9.383007752E0,9.530067444E-2,3.869116306E-2,8.354282379E-2,1.325089735E-1
9.391212752E0,9.756565094E-2,9.551167488E-3,5.968809128E-2,1.147734694E-1
9.399420021E0,8.318901062E-2,9.195685387E-3,4.763841629E-2,9.630363869E-2
9.407650752E0,8.089065552E-2,-2.484560013E-2,6.171989441E-2,1.047375165E-1
9.415855367E0,9.556674957E-2,-5.135881901E-2,3.964948654E-2,1.155110977E-1
9.424067136E0,1.412611008E-1,-4.914426804E-2,4.168462753E-2,1.552657910E-1
9.432274713E0,1.461954117E-1,-5.646216869E-2,6.297397614E-2,1.688987761E-1
9.440480021E0,1.318492889E-1,-3.983211517E-2,7.966852188E-2,1.591160136E-1
9.448712059E0,1.102781296E-1,-2.084875107E-2,5.572032928E-2,1.253023997E-1
9.456917906E0,9.351539612E-2,-4.400610924E-3,4.127645493E-2,1.023144194E-1
9.465156636E0,8.872318268E-2,-1.916432381E-2,2.441692352E-2,9.399606697E-2
9.473360944E0,1.007900238E-1,-1.700234413E-2,3.378534317E-2,1.076529517E-1
9.481566213E0,9.600448608E-2,-4.589855671E-2,4.092073441E-2,1.140089705E-1
9.489795098E0,1.105470657E-1,-5.549395084E-2,4.782772064E-2,1.326187136E-1
9.497999944E0,1.371040344E-1,-5.089378357E-2,4.983615875E-2,1.545035151E-1
9.506238251E0,1.276826859E-1,-2.970802784E-2,6.386613846E-2,1.458229023E-1
9.514443598E0,1.038541794E-1,-1.319873333E-2,5.165529251E-2,1.167397378E-1
9.522649598E0,9.423255920E-2,3.200173378E-3,6.838655472E-2,1.164763375E-1
9.530880098E0,1.462192535E-1,-2.570009232E-2,3.347539902E-2,1.521879338E-1
9.539086136E0,1.099491119E-1,-9.171724319E-3,3.395843506E-2,1.154387416E-1
9.547356482E0,1.268014908E-1,-1.669394970E-2,2.893638611E-2,1.311282596E-1
9.555563482E0,1.030750275E-1,-2.396428585E-2,3.097724915E-2,1.102648550E-1
9.563770674E0,1.032342911E-1,-7.613778114E-3,4.259777069E-2,1.119368507E-1
9.572000174E0,9.861183167E-2,-2.222561836E-2,5.904006958E-2,1.170640904E-1
9.580206944E0,9.863948822E-2,-2.978885174E-2,5.650234222E-2,1.175144204E-1
9.588418713E0,7.951927185E-2,-1.809108257E-2,7.313728333E-2,1.095429782E-1
9.596624174E0,9.869098663E-2,-2.326953411E-2,5.864286423E-2,1.171339728E-1
9.604828713E0,8.686351776E-2,-2.840638161E-2,5.114698410E-2,1.047292090E-1
9.613057328E0,1.014575958E-1,-3.346562386E-2,3.875827789E-2,1.136476829E-1
9.621262290E0,9.213924408E-2,-1.232624054E-2,6.698608398E-2,1.145805915E-1
9.629508636E0,8.271980286E-2,-3.113508224E-3,5.946826935E-2,1.019251430E-1
9.637713059E0,9.958362579E-2,6.194710732E-3,6.881475449E-2,1.212053770E-1
9.645918597E0,8.297634125E-2,1.096010208E-3,7.089567184E-2,1.091442657E-1
9.654149097E0,8.302116394E-2,-1.582503319E-3,7.314586639E-2,1.106586452E-1
9.662356405E0,7.834625244E-2,-2.828323841E-2,8.005952835E-2,1.155318351E-1
9.670592866E0,8.544635773E-2,-1.434874535E-2,8.725309372E-2,1.229636894E-1
9.678799597E0,9.716415405E-2,-1.466929913E-2,5.882406235E-2,1.145265536E-1
9.687006251E0,9.692192078E-2,4.107952118E-3,5.669784546E-2,1.123627148E-1
9.695237943E0,8.722400665E-2,-3.204762936E-2,4.724216461E-2,1.042444243E-1
9.703444905E0,1.158256531E-1,-2.751624584E-2,4.976367950E-2,1.290315833E-1
9.711683674E0,1.276531219E-1,-1.580250263E-2,4.512453079E-2,1.363131025E-1
9.719890405E0,1.394557953E-1,-1.842391491E-2,3.335237503E-2,1.445674251E-1
9.728096904E0,1.272315979E-1,-8.807063103E-3,4.811096191E-2,1.363088718E-1
9.736326020E0,1.364917755E-1,-1.359987259E-2,3.183317184E-2,1.408130397E-1
9.744531751E0,9.306526184E-2,2.929496765E-2,4.903888702E-2,1.091977588E-1
9.752747751E0,6.898498535E-2,1.020097733E-2,3.490066528E-2,7.798105270E-2
9.760951520E0,5.947685242E-2,-6.663322449E-3,5.152797699E-2,7.897485835E-2
9.769156097E0,7.641887665E-2,2.918124199E-3,4.406929016E-2,8.826359664E-2
9.777384904E0,9.343338013E-2,-3.513216972E-2,6.290388107E-2,1.179871354E-1
9.785588212E0,1.295709610E-1,-3.496217728E-2,7.218456268E-2,1.523863474E-1
9.793855443E0,1.130065918E-1,-2.278888226E-2,7.433462143E-2,1.371694532E-1
9.802059250E0,1.154212952E-1,-2.280282974E-2,9.584951401E-2,1.517536614E-1
9.810262866E0,1.200952530E-1,1.261353493E-3,8.408212662E-2,1.466092249E-1
9.818490443E0,7.912826538E-2,-1.054716110E-2,8.452987671E-2,1.162661819E-1
9.826693750E0,7.876586914E-2,1.589787006E-2,5.159044266E-2,9.549019943E-2
9.834928212E0,7.128715515E-2,-1.491534710E-2,4.254961014E-2,8.434924654E-2
9.843130981E0,6.641483307E-2,-9.790182114E-3,3.797769547E-2,7.713029930E-2
9.851334212E0,9.750747681E-2,-5.254793167E-2,3.093099594E-2,1.150031289E-1
9.859562019E0,1.141405106E-1,-5.944621563E-2,4.316854477E-2,1.357403107E-1
9.867766596E0,1.236057281E-1,-6.141877174E-2,3.626966476E-2,1.427099511E-1
9.876013173E0,1.353921890E-1,-3.007197380E-2,4.379224777E-2,1.454411545E-1
9.884217365E0,1.257791519E-1,-2.985286713E-2,5.587673187E-2,1.408325172E-1
9.892420288E0,8.968162537E-2,-1.312148571E-2,5.615043640E-2,1.066200676E-1
9.900646288E0,7.037353516E-2,-5.910873413E-3,4.442262650E-2,8.343106508E-2
9.908849788E0,8.699893951E-2,-9.927749634E-4,2.790117264E-2,9.136890343E-2
9.917060788E0,8.701419830E-2,1.824927330E-2,2.071762085E-2,9.128924633E-2
9.925265096E0,1.134328842E-1,8.985280991E-3,2.785968781E-2,1.171491216E-1
9.933470788E0,1.254024506E-1,-2.187621593E-2,5.905532837E-2,1.403277422E-1
9.941700596E0,1.445760727E-1,-1.681220531E-2,7.585620880E-2,1.641312141E-1
9.949904596E0,1.301307678E-1,2.166271210E-2,6.165838242E-2,1.456195246E-1
9.958141942E0,1.300859451E-1,-6.896376610E-3,6.895494461E-2,1.473930036E-1
9.966347942E0,1.204299927E-1,1.000785828E-2,6.193017960E-2,1.357898653E-1
9.974553980E0,1.084518433E-1,-1.879334450E-3,4.041719437E-2,1.157535477E-1
9.982781134E0,8.473873138E-2,6.582736969E-4,2.574110031E-2,8.856461012E-2
9.990986327E0,7.530212402E-2,-1.580989361E-2,3.039407730E-2,8.272945396E-2
9.999221596E0,8.507633209E-2,-2.745497227E-2,4.215002060E-2,9.883512544E-2
1.000742633E1,8.788967133E-2,-1.503360271E-2,3.684234619E-2,9.647777987E-2
1.001563044E1,1.026372910E-1,-2.418959141E-2,6.989002228E-2,1.265075691E-1
1.002385813E1,1.100978851E-1,-4.055500031E-2,6.718015671E-2,1.352014268E-1
1.003206163E1,1.174888611E-1,-3.561770916E-2,5.732536316E-2,1.354933613E-1
1.004032683E1,1.057710648E-1,-4.475247860E-2,6.663560867E-2,1.327802953E-1
1.004852960E1,9.636592865E-2,-3.011822701E-2,5.926227570E-2,1.170705647E-1
1.005673348E1,9.644699097E-2,-2.753138542E-2,6.637144089E-2,1.202712244E-1
1.006496148E1,8.686542511E-2,-2.992069721E-2,5.919933319E-2,1.092950651E-1
1.007316656E1,5.341625214E-2,-2.031624317E-2,6.149625778E-2,8.395138742E-2
1.008138006E1,6.053066254E-2,-2.744376659E-2,8.315992355E-2,1.064551282E-1
1.008958483E1,6.529712677E-2,-2.714765072E-2,9.285020828E-2,1.167127709E-1
1.009778960E1,9.885692596E-2,-3.887748718E-2,6.890916824E-2,1.266199996E-1
1.010601756E1,9.868144989E-2,-3.629648685E-2,6.922531128E-2,1.258872799E-1
1.011421983E1,9.842014313E-2,-1.452374458E-2,7.207775116E-2,1.228522118E-1
1.012246729E1,1.195011139E-1,-1.840591431E-4,5.362892151E-2,1.309832482E-1
1.013067198E1,1.025514603E-1,-2.631640434E-2,6.354999542E-2,1.234826184E-1
1.013887652E1,9.504318237E-2,1.684784889E-2,4.969835281E-2,1.085678719E-1
1.014710713E1,9.963798523E-2,-2.344250679E-3,3.801155090E-2,1.066681846E-1
1.015531175E1,9.713268280E-2,-1.410949230E-2,5.259990692E-2,1.113579187E-1
1.016354986E1,1.138257980E-1,-2.610611916E-2,4.551076889E-2,1.253358362E-1
1.017175521E1,1.066303253E-1,-1.644837856E-2,3.597497940E-2,1.137311504E-1
1.017995867E1,1.066932678E-1,-2.350771427E-2,5.027818680E-2,1.202662134E-1
1.018818406E1,1.115255356E-1,-1.643180847E-2,5.736446381E-2,1.264856953E-1
1.019638560E1,1.139106750E-1,-3.317117691E-2,5.259656906E-2,1.297781489E-1
1.020462079E1,1.019992828E-1,2.914905548E-3,5.494642258E-2,1.158941747E-1
1.021282348E1,9.730243683E-2,-8.978605270E-3,5.003976822E-2,1.097832317E-1
1.022102736E1,9.986495972E-2,-6.538271904E-3,4.261302948E-2,1.087732939E-1
1.022925506E1,9.521675110E-2,-1.347243786E-2,6.640768051E-2,1.168662325E-1
1.023745763E1,9.529876709E-2,-1.078033447E-2,6.396770477E-2,1.152819928E-1
1.024566590E1,1.121654510E-1,-3.216540813E-2,7.342243195E-2,1.378642644E-1
1.025386894E1,1.146345139E-1,-1.757311821E-2,6.379365921E-2,1.323613131E-1
1.026207186E1,1.026792526E-1,-4.363882542E-2,6.384086609E-2,1.285419472E-1
1.027030075E1,9.539222717E-2,-4.616725445E-2,5.678510666E-2,1.202316128E-1
1.027850529E1,1.025743484E-1,-1.245760918E-2,5.683374405E-2,1.179269411E-1
1.028677190E1,1.001663208E-1,-1.232647896E-2,3.534317017E-2,1.069316304E-1
1.029497513E1,1.001605988E-1,-3.383803368E-2,5.930328369E-2,1.212189652E-1
1.030317748E1,1.218357086E-1,-2.634763718E-2,6.398010254E-2,1.401127810E-1
1.031140540E1,1.242570877E-1,-2.875339985E-2,6.393623352E-2,1.426689308E-1
1.031960836E1,1.362934113E-1,-3.345084190E-2,4.949426651E-2,1.488104002E-1
1.032784198E1,1.122379303E-1,-2.864873409E-2,4.248905182E-2,1.233832342E-1
1.033604463E1,9.290218353E-2,-2.362489700E-3,4.035854340E-2,1.013173681E-1
1.034424763E1,6.883049011E-2,-2.477407455E-3,4.292011261E-2,8.115361966E-2
1.035247590E1,6.880378723E-2,-7.044434547E-3,4.541397095E-2,8.274064269E-2
1.036068044E1,7.861804962E-2,-4.283428192E-3,5.472517014E-2,9.588529465E-2
1.036892432E1,1.077470779E-1,-1.833927631E-2,5.420207977E-2,1.219984726E-1
1.037712833E1,1.224117279E-1,-3.011906147E-2,4.900884628E-2,1.352540425E-1
1.038533113E1,1.322135925E-1,-1.556539536E-2,7.505369186E-2,1.528259541E-1
1.039355686E1,1.178445816E-1,6.079435349E-3,8.226919174E-2,1.438489654E-1
1.040176075E1,1.177043915E-1,1.317667961E-2,8.724784851E-2,1.471058657E-1
1.040996963E1,9.118747711E-2,-3.648877144E-3,8.032131195E-2,1.215729552E-1
1.041817409E1,5.997943878E-2,1.342296600E-3,4.698324203E-2,7.620209885E-2
1.042637817E1,4.544353485E-2,-1.778101921E-2,4.246330261E-2,6.468702785E-2
1.043460725E1,7.893276215E-2,-1.526224613E-2,5.930185318E-2,9.990008452E-2
1.044281044E1,7.897472382E-2,-7.861137390E-3,5.690097809E-2,9.765513704E-2
1.045104717E1,7.894992828E-2,-2.679824829E-2,7.614994049E-2,1.129161225E-1
1.045925002E1,1.077232361E-1,-7.348656654E-3,7.377004623E-2,1.307681845E-1
1.046745282E1,1.218585968E-1,-1.177144051E-2,6.464052200E-2,1.384430623E-1
1.047568140E1,1.001062393E-1,-1.393508911E-2,6.980228424E-2,1.228324255E-1
1.048388463E1,1.118183136E-1,5.423188210E-3,3.912782669E-2,1.185906111E-1
1.049211932E1,6.849002838E-2,-4.003524780E-3,4.191493988E-2,8.039760185E-2
1.050032148E1,8.740425110E-2,-3.028655052E-2,2.792835236E-2,9.662696890E-2
1.050852402E1,7.536792755E-2,-3.496694565E-2,4.242229462E-2,9.328806393E-2
1.051674990E1,8.495235443E-2,-1.814007759E-2,5.918931961E-2,1.051158432E-1
1.052495056E1,1.088943481E-1,-2.524197102E-2,5.681657791E-2,1.253924228E-1
1.053321425E1,1.136665344E-1,-2.529656887E-2,5.682468414E-2,1.295725363E-1
1.054141436E1,1.232004166E-1,-3.682136536E-3,6.169986725E-2,1.378360417E-1
1.054961556E1,1.277990341E-1,-2.286183834E-2,5.479526520E-2,1.409176279E-1
1.055784044E1,1.156330109E-1,3.506302834E-3,4.791927338E-2,1.252179864E-1
1.056604306E1,1.081123352E-1,8.217692375E-3,3.165435791E-2,1.129504576E-1
1.057425271E1,7.922554016E-2,1.058423519E-2,4.864645004E-2,9.356916880E-2
1.058245682E1,7.195854187E-2,5.729556084E-3,3.917741776E-2,8.213239083E-2
1.059066109E1,8.635616302E-2,1.011610031E-3,5.590820312E-2,1.028792371E-1
1.059888802E1,9.125041962E-2,-1.563203335E-2,5.577611923E-2,1.080831857E-1
1.060709086E1,1.128215790E-1,-5.972146988E-3,4.618740082E-2,1.220559348E-1
1.061533625E1,1.320714951E-1,-2.979195118E-2,4.368019104E-2,1.422617280E-1
1.062353990E1,1.319990158E-1,-3.213727474E-2,5.098533630E-2,1.451070264E-1
1.063174279E1,1.295957565E-1,-1.288497448E-2,5.820894241E-2,1.426511958E-1
1.063996982E1,9.618759155E-2,-1.030659676E-2,6.287813187E-2,1.153773729E-1
1.064817217E1,9.622955322E-2,-2.696824074E-2,5.326414108E-2,1.132452279E-1
1.065640552E1,1.010675430E-1,-2.933990955E-2,4.122304916E-2,1.130257419E-1
1.066460879E1,1.011819839E-1,-1.940429211E-2,5.072212219E-2,1.148348993E-1
1.067281248E1,8.917808533E-2,4.609227180E-3,5.558109283E-2,1.051819079E-1
1.068104048E1,1.346940994E-1,-1.213753223E-2,6.751346588E-2,1.511551792E-1
1.068924232E1,9.399318695E-2,-2.399802208E-3,5.319166183E-2,1.080269926E-1
1.069747582E1,1.106920242E-1,-1.422548294E-2,6.289815903E-2,1.281064674E-1
1.070567759E1,8.673858643E-2,-3.077626228E-2,6.536483765E-2,1.128863264E-1
1.071387963E1,1.082201004E-1,-1.651906967E-2,6.304454803E-2,1.263292715E-1
1.072210856E1,8.172225952E-2,-1.175737381E-2,5.370521545E-2,9.849372420E-2
1.073031340E1,8.884906769E-2,-1.647722721E-2,5.620670319E-2,1.064182754E-1
1.073852329E1,8.641242981E-2,2.704739571E-3,4.909181595E-2,9.942047090E-2
1.074672532E1,8.642101288E-2,-1.401472092E-2,6.345558167E-2,1.081277703E-1
1.075492682E1,1.151390076E-1,-4.193663597E-3,6.832695007E-2,1.339520436E-1
1.076315148E1,9.111404419E-2,-4.152178764E-3,5.410242081E-2,1.060475439E-1
1.077135252E1,9.101390839E-2,-1.850318909E-2,6.622934341E-2,1.140711421E-1
1.077961817E1,1.102027893E-1,-2.319455147E-2,5.662393570E-2,1.260512280E-1
1.078782075E1,1.077833176E-1,-8.935570717E-3,4.705905914E-2,1.179476283E-1
1.079602282E1,9.821319580E-2,-1.605105400E-2,4.227828979E-2,1.081245668E-1
1.080424917E1,8.870983124E-2,-2.566862106E-2,3.976154327E-2,1.005449779E-1
1.081245128E1,9.840106964E-2,-2.083921432E-2,7.311677933E-2,1.243507410E-1
1.082068540E1,1.105394363E-1,-8.747458458E-3,4.655742645E-2,1.202625419E-1
1.082888905E1,1.251115799E-1,-1.112318039E-2,5.582475662E-2,1.374519408E-1
1.083709125E1,1.013669968E-1,-2.315294743E-2,6.747770309E-2,1.239538923E-1
1.084531744E1,8.955669403E-2,-1.836454868E-2,6.244468689E-2,1.107113229E-1
1.085351967E1,1.088256836E-1,-4.463291168E-2,6.707668304E-2,1.354046071E-1
1.086176471E1,9.688758850E-2,-3.504228592E-2,6.702947617E-2,1.229150816E-1
1.086996771E1,9.206581116E-2,-1.840329170E-2,5.747127533E-2,1.100806169E-1
1.087817082E1,9.922218323E-2,-1.603579521E-2,4.792785645E-2,1.113519995E-1
1.088639875E1,9.923267365E-2,-1.622402668E-2,3.828287125E-2,1.075914532E-1
1.089460429E1,9.690952301E-2,-9.048342705E-3,4.535388947E-2,1.073792505E-1
1.090281544E1,1.232442856E-1,-2.094364166E-2,3.580331802E-2,1.300371779E-1
1.091102002E1,1.208209991E-1,-3.074991703E-2,4.536104202E-2,1.326683661E-1
1.091922617E1,1.207056046E-1,-4.051804543E-2,5.506324768E-2,1.387210014E-1
1.092745555E1,8.705806732E-2,-2.382934093E-2,5.284643173E-2,1.045929726E-1
1.093565921E1,9.894084930E-2,-9.443283081E-3,6.495666504E-2,1.187343067E-1
1.094389602E1,7.981491089E-2,1.452732086E-2,5.773925781E-2,9.957552382E-2
1.095210067E1,8.214855194E-2,2.273917198E-3,6.015062332E-2,1.018413117E-1
1.096030425E1,8.938694000E-2,1.187980175E-2,7.204580307E-2,1.154198963E-1
1.096853078E1,1.038808823E-1,-7.392525673E-3,6.702899933E-2,1.238498037E-1
1.097673459E1,9.448242188E-2,9.299516678E-3,7.391929626E-2,1.203223646E-1
1.098496994E1,1.016063690E-1,-4.674196243E-4,9.550523758E-2,1.394464883E-1
1.099317444E1,1.109580994E-1,4.285216331E-3,8.865594864E-2,1.420913091E-1
1.100138059E1,1.324548721E-1,-7.816433907E-3,6.475734711E-2,1.476445183E-1
1.100961005E1,8.676433563E-2,6.304025650E-3,5.542087555E-2,1.031468086E-1
1.101781571E1,7.465362549E-2,3.810048103E-3,4.363679886E-2,8.655547631E-2
1.102608498E1,8.910274506E-2,1.333928108E-2,4.349565506E-2,1.000455277E-1
1.103429048E1,8.671188354E-2,1.399397850E-3,4.110574722E-2,9.597182668E-2
1.104249578E1,1.035547256E-1,-1.778852940E-2,5.533552170E-2,1.187519808E-1
1.105072398E1,1.109428406E-1,-2.004325390E-2,5.505800247E-2,1.254648538E-1
1.105892725E1,1.135683060E-1,-2.702951431E-2,6.194067001E-2,1.321552169E-1
1.106713652E1,1.208105087E-1,-2.926492691E-2,5.231571198E-2,1.348649276E-1
1.107533905E1,9.918880463E-2,-2.457118034E-2,6.198167801E-2,1.195152303E-1
1.108354352E1,8.235454559E-2,-2.948153019E-2,5.487966537E-2,1.032628175E-1
1.109177286E1,6.545352936E-2,-1.499652863E-2,4.315519333E-2,7.982124459E-2
1.109997678E1,8.935642242E-2,-9.938359261E-3,5.047035217E-2,1.031047897E-1
1.110822082E1,8.690834045E-2,-9.858131409E-3,5.775594711E-2,1.048140822E-1
1.111642178E1,7.965850830E-2,-1.230680943E-2,7.460355759E-2,1.098299882E-1
1.112462436E1,1.226577759E-1,-2.446830273E-2,6.272792816E-2,1.399229102E-1
1.113285182E1,1.297111511E-1,-1.253938675E-2,7.727718353E-2,1.515057162E-1
1.114105486E1,1.031932831E-1,1.730084419E-3,6.316566467E-2,1.210030911E-1
1.114929101E1,1.005277634E-1,-3.924357891E-2,6.111049652E-2,1.240176700E-1
1.115749478E1,1.195220947E-1,-3.436923027E-3,5.893087387E-2,1.333048816E-1
1.116569771E1,1.050624847E-1,5.978465080E-3,4.466581345E-2,1.143193012E-1
1.117392859E1,9.774112701E-2,-8.653759956E-3,3.283739090E-2,1.034722654E-1
1.118213224E1,1.145286560E-1,-3.982222080E-2,4.235553741E-2,1.284391446E-1
1.119036598E1,1.123695374E-1,-2.762222290E-2,3.487825394E-2,1.208569101E-1
1.119856744E1,1.340408325E-1,-3.495943546E-2,5.858993530E-2,1.504057427E-1
1.120676921E1,1.270475388E-1,-2.536010742E-2,5.591630936E-2,1.411057965E-1
1.121499559E1,1.031780243E-1,-1.471161842E-3,5.578804016E-2,1.173037699E-1
1.122319794E1,1.008014679E-1,-2.554512024E-2,6.530523300E-2,1.227935770E-1
1.123140651E1,9.123420715E-2,-2.326643467E-2,5.568170547E-2,1.093867445E-1
1.123960801E1,8.885383606E-2,-1.625180244E-2,5.561590195E-2,1.060766412E-1
1.124780982E1,7.217121124E-2,-2.581977844E-2,4.831790924E-2,9.060885743E-2
1.125603490E1,9.385013580E-2,-2.098202705E-2,5.292272568E-2,1.097675195E-1
1.126423651E1,1.012058258E-1,-3.054571152E-2,5.505371094E-2,1.191913200E-1
1.127250159E1,7.969665527E-2,-2.847707272E-2,7.166957855E-2,1.109009875E-1
1.128070298E1,1.156816483E-1,-2.367603779E-2,6.437969208E-2,1.344899374E-1
1.128890555E1,1.108856201E-1,-2.363657951E-2,6.679582596E-2,1.315902390E-1
1.129713259E1,9.892082214E-2,-1.420891285E-2,7.632446289E-2,1.257483435E-1
1.130533548E1,9.651184082E-2,-2.620792389E-2,6.197357178E-2,1.176525150E-1
1.131356971E1,1.156091690E-1,-2.647757530E-2,5.240964890E-2,1.296661608E-1
1.132177328E1,7.970237732E-2,-2.673196793E-2,5.712127686E-2,1.016361517E-1
1.132997717E1,9.402847290E-2,-3.678798676E-4,4.761171341E-2,1.053962253E-1
1.133820259E1,9.870815277E-2,-5.426287651E-3,4.770517349E-2,1.097657852E-1
1.134640555E1,1.035614014E-1,-1.519215107E-2,5.952548981E-2,1.204119979E-1
1.135465028E1,1.203813553E-1,-8.932352066E-4,6.420326233E-2,1.364350668E-1
1.136285382E1,9.880161285E-2,-3.408074379E-3,4.746198654E-2,1.096631836E-1
1.137105698E1,1.275062561E-1,-1.312208176E-2,5.464696884E-2,1.393424759E-1
1.137928486E1,1.082124710E-1,-1.352131367E-2,3.799438477E-2,1.154830640E-1
1.138748778E1,1.177139282E-1,-2.565729618E-2,2.848863602E-2,1.238001136E-1
1.139569790E1,1.104707718E-1,-1.636433601E-2,2.850484848E-2,1.152567104E-1
1.140390148E1,8.179092407E-2,-1.168489456E-2,4.276371002E-2,9.303239713E-2
1.141210378E1,7.231521606E-2,-2.153038979E-3,2.104997635E-2,7.534737922E-2
1.142032913E1,1.274805069E-1,-2.276182175E-3,6.156730652E-2,1.415874072E-1
1.142853132E1,1.372022629E-1,-1.207375526E-2,6.368112564E-2,1.517416300E-1
1.143676498E1,1.110229492E-1,-1.472556591E-2,6.097984314E-2,1.275205035E-1
1.144496851E1,1.230878830E-1,-4.388356209E-2,5.353879929E-2,1.412189682E-1
1.145317055E1,1.112012863E-1,-2.726542950E-2,5.576801300E-2,1.273546269E-1
1.146139736E1,1.063613892E-1,-1.563763618E-2,3.660154343E-2,1.135647558E-1
1.146960040E1,1.231813431E-1,-4.680097103E-2,2.931737900E-2,1.349943809E-1
1.147783428E1,9.444904327E-2,-3.021788597E-2,3.645563126E-2,1.056539420E-1
1.148603782E1,1.065607071E-1,-4.457807541E-2,3.624296188E-2,1.210617255E-1
1.149424198E1,9.952259064E-2,-2.793693542E-2,5.035781860E-2,1.149831653E-1
1.150247140E1,9.729194641E-2,-3.286874294E-2,5.725097656E-2,1.175744505E-1
1.151067590E1,1.238803864E-1,-1.848793030E-2,7.602500916E-2,1.465194721E-1
1.151894390E1,1.120080948E-1,-9.155988693E-3,6.862640381E-2,1.316785052E-1
1.152714824E1,1.407909393E-1,-7.173776627E-3,6.604290009E-2,1.556766403E-1
1.153535220E1,1.143131256E-1,-7.671713829E-3,4.936647415E-2,1.247533352E-1
1.154357963E1,7.579803467E-2,-8.069396019E-3,4.478979111E-2,8.841143930E-2
1.155178420E1,6.373691559E-2,-5.901813507E-3,3.528833389E-2,7.309235473E-2
1.155999570E1,4.694938660E-2,-3.670692444E-3,7.120037079E-2,8.536516670E-2
1.156820209E1,3.501701355E-2,1.061391830E-2,5.914974213E-2,6.955241544E-2
1.157640797E1,5.918502808E-2,8.084893227E-3,7.792377472E-2,9.818527239E-2
1.158463671E1,1.073093414E-1,-1.588392258E-2,6.797218323E-2,1.280148876E-1
1.159284163E1,1.244449615E-1,-3.506433964E-2,9.612321854E-2,1.611078195E-1
1.160108786E1,1.315774918E-1,-2.808642387E-2,1.296639442E-1,1.868534773E-1
1.160929297E1,1.506700516E-1,-2.129578590E-2,8.416509628E-2,1.738928934E-1
1.161749863E1,1.289110184E-1,-1.437067986E-2,7.484102249E-2,1.497522813E-1
1.162572601E1,7.588005066E-2,-1.933836937E-2,5.139684677E-2,9.366637858E-2
1.163393013E1,6.837081909E-2,2.106297016E-2,3.265905380E-2,7.864369912E-2
1.164216509E1,6.336498260E-2,1.379799843E-2,1.381349564E-2,6.630473922E-2
1.165036932E1,8.004760742E-2,-5.196452141E-3,1.158142090E-2,8.104783698E-2
1.165857240E1,6.568050385E-2,-3.129196167E-2,1.882886887E-2,7.515079343E-2
1.166680001E1,1.040306091E-1,-3.581190109E-2,4.996156693E-2,1.208346724E-1
1.167500424E1,1.019086838E-1,-2.838456631E-2,4.960966110E-2,1.168425518E-1
1.168324086E1,1.282577515E-1,-5.945110321E-2,5.678796768E-2,1.523461774E-1
1.169144455E1,1.257858276E-1,-3.077054024E-2,6.886529922E-2,1.466674129E-1
1.169964809E1,1.231279373E-1,-4.065179825E-2,4.763841629E-2,1.381393367E-1
1.170787705E1,1.013956070E-1,-2.642858028E-2,3.591060638E-2,1.107660175E-1
1.171608213E1,1.035842896E-1,-1.722919941E-2,5.048847198E-2,1.165145320E-1
1.172429374E1,8.189392090E-2,-2.227246761E-2,3.866624832E-2,9.326175986E-2
1.173249717E1,7.234477997E-2,-2.005219460E-2,4.815578461E-2,8.918989454E-2
1.174070040E1,1.107082367E-1,-2.502775192E-2,4.323244095E-2,1.214567659E-1
1.174892886E1,1.275482178E-1,-3.462910652E-2,5.507373810E-2,1.431811423E-1
1.175713228E1,1.204376221E-1,-1.301455498E-2,6.455755234E-2,1.372671738E-1
1.176540082E1,1.227693558E-1,-8.466720581E-3,6.698274612E-2,1.401095584E-1
1.177360524E1,1.131162643E-1,-1.351189613E-2,6.463623047E-2,1.309797804E-1
1.178180874E1,1.130905151E-1,-8.876323700E-3,4.308748245E-2,1.213457246E-1
1.179003690E1,1.059188843E-1,-4.032802582E-2,1.664733887E-2,1.145525801E-1
1.179824082E1,1.012468338E-1,-3.075611591E-2,3.083467484E-2,1.102163200E-1
1.180647744E1,9.194469452E-2,-4.023468494E-2,2.086496353E-2,1.025085529E-1
1.181468270E1,1.136608124E-1,-2.831935883E-2,3.495979309E-2,1.222413739E-1
1.182288824E1,1.377296448E-1,-4.044950008E-2,2.993869781E-2,1.466354075E-1
1.183111778E1,1.282196045E-1,-4.045081139E-2,5.617141724E-2,1.457112323E-1
1.183932117E1,1.234188080E-1,-3.110170364E-2,5.373573303E-2,1.381558799E-1
1.184756601E1,1.233549118E-1,-2.436017990E-2,4.892683029E-2,1.349210412E-1
1.185576878E1,8.746051788E-2,-2.933824062E-2,5.124139786E-2,1.055260887E-1
1.186397120E1,1.281299591E-1,-2.489125729E-2,5.119943619E-2,1.402078578E-1
1.187219936E1,8.745288849E-2,-4.667747021E-2,3.194522858E-2,1.041503315E-1
1.188040378E1,1.043338776E-1,-3.264129162E-2,3.885793686E-2,1.160213393E-1
1.188861313E1,9.966754913E-2,-2.820289135E-2,5.054998398E-2,1.152576432E-1
1.189681628E1,8.546924591E-2,-2.125239372E-2,5.981016159E-2,1.064608457E-1
1.190501951E1,8.794116974E-2,1.568794250E-4,5.486536026E-2,1.036526975E-1
1.191324659E1,1.071557999E-1,-4.897594452E-3,6.427907944E-2,1.250525967E-1
1.192144897E1,1.023530960E-1,-7.540941238E-3,6.902408600E-2,1.236824422E-1
1.192968547E1,9.988880157E-2,-5.407810211E-3,7.385063171E-2,1.243419997E-1
1.193788709E1,7.839870453E-2,-1.513278484E-2,6.654024124E-2,1.039372972E-1
1.194609005E1,1.095352173E-1,-1.537644863E-2,6.167078018E-2,1.266399784E-1
1.195431674E1,1.119928360E-1,-8.518695831E-3,5.909204483E-2,1.269126993E-1
1.196252113E1,1.120338440E-1,-1.515388489E-3,4.701185226E-2,1.215071720E-1
1.197075728E1,8.334350586E-2,-1.683592796E-3,5.169534683E-2,9.808865040E-2
1.197896043E1,8.827018738E-2,2.688038349E-2,6.819868088E-2,1.147398844E-1
1.198716216E1,9.317970276E-2,-4.344224930E-3,5.122947693E-2,1.064226884E-1
1.199538982E1,1.005277634E-1,-1.872110367E-2,6.055164337E-2,1.188394398E-1
1.200359478E1,1.221561432E-1,-2.614903450E-2,5.557632446E-2,1.367282822E-1
1.201186440E1,6.715393066E-2,-1.915800571E-2,5.063819885E-2,8.626069076E-2
1.202006805E1,9.838390350E-2,-1.211071014E-2,6.480836868E-2,1.184322018E-1
1.202826905E1,9.360027313E-2,-1.933503151E-2,4.563522339E-2,1.059123609E-1
1.203649317E1,9.132575989E-2,-2.417790890E-2,5.501508713E-2,1.093234902E-1
1.204469509E1,7.700824738E-2,-3.621673584E-2,5.013847351E-2,9.877139588E-2
1.205290128E1,8.899116516E-2,-2.193295956E-2,5.488681793E-2,1.068318537E-1
1.206110293E1,1.081962585E-1,-2.443540096E-2,6.435585022E-2,1.282388188E-1
1.206930559E1,9.861087799E-2,-2.224421501E-2,4.516267776E-2,1.107184620E-1
1.207753151E1,1.177291870E-1,-2.013421059E-2,6.429433823E-2,1.356440557E-1
1.208573343E1,9.619998932E-2,-2.760159969E-2,5.222082138E-2,1.128862278E-1
1.209397624E1,8.658027649E-2,-4.209482670E-2,4.985618591E-2,1.084147499E-1
1.210217901E1,7.445812225E-2,-3.280007839E-2,3.325176239E-2,8.789503293E-2
1.211038240E1,9.100914001E-2,-3.779315948E-2,5.745744705E-2,1.140716647E-1
1.211861059E1,8.583736420E-2,-1.882255077E-2,5.559730530E-2,1.039875082E-1
1.212681436E1,1.118955612E-1,-5.239260197E-2,4.164266586E-2,1.303829474E-1
1.213504832E1,1.211490631E-1,-2.144026756E-2,3.011798859E-2,1.266644141E-1
1.214325082E1,1.209821701E-1,-3.350949287E-2,3.034591675E-2,1.291528020E-1
1.215145320E1,1.304712296E-1,-3.572440147E-2,3.531551361E-2,1.398075824E-1
1.215967940E1,1.400585175E-1,-3.557574749E-2,4.491472244E-2,1.513253264E-1
1.216788128E1,1.376342773E-1,-4.501199722E-2,4.260349274E-2,1.509447972E-1
1.217611474E1,1.183280945E-1,-3.543984890E-2,3.325700760E-2,1.279200899E-1
1.218431443E1,1.013545990E-1,-6.801605225E-3,5.510616302E-2,1.155668887E-1
1.219251451E1,6.531143188E-2,-9.348988533E-3,5.287218094E-2,8.454853185E-2
1.220073993E1,7.244873047E-2,2.457380295E-3,5.528974533E-2,9.116914611E-2
1.220894220E1,5.093288422E-2,1.680397987E-2,2.171850204E-2,5.786385543E-2
1.221714874E1,5.583000183E-2,-6.945729256E-3,5.033445358E-2,7.549032704E-2
1.222535024E1,9.435939789E-2,-9.112119675E-3,6.921100616E-2,1.173749976E-1
1.223355328E1,8.490848541E-2,-3.513920307E-2,8.346366882E-2,1.241386261E-1
1.224178020E1,1.041316986E-1,3.356337547E-3,1.001696587E-1,1.445290150E-1
1.224998270E1,1.255636215E-1,3.318071365E-3,1.123027802E-1,1.684907923E-1
1.225824828E1,1.109924316E-1,-1.507639885E-3,9.824180603E-2,1.482330777E-1
1.226645093E1,7.961368561E-2,-1.555085182E-3,7.228088379E-2,1.075420075E-1
1.227465359E1,7.207489014E-2,-2.309966087E-2,4.888343811E-2,9.009980379E-2
1.228288059E1,8.147430420E-2,-1.086878777E-2,3.006839752E-2,8.752314735E-2
1.229108266E1,9.808063507E-2,-4.401934147E-2,1.603221893E-2,1.086947351E-1
1.229931866E1,1.027536392E-1,-6.545674801E-2,3.778696060E-2,1.275568525E-1
1.230752420E1,1.267614365E-1,-3.857374191E-2,4.261970520E-2,1.391863305E-1
1.231572851E1,1.220312119E-1,-4.538381100E-2,4.263019562E-2,1.369986881E-1
1.232395566E1,1.507835388E-1,-3.796648979E-2,4.984092712E-2,1.632827240E-1
1.233215774E1,1.052350998E-1,-1.374900341E-2,2.845382690E-2,1.098775755E-1
1.234040059E1,1.218957901E-1,3.150343895E-3,5.018997192E-2,1.318618277E-1
1.234860201E1,9.787654877E-2,-2.805733681E-2,4.789113998E-2,1.125193061E-1
1.235680351E1,8.117198944E-2,-3.026103973E-2,3.109788895E-2,9.204184425E-2
1.236502889E1,8.599281311E-2,-2.791297436E-2,3.822088242E-2,9.815668035E-2
1.237323197E1,9.799098969E-2,-3.018629551E-2,3.821134567E-2,1.094237334E-1
1.238144016E1,1.172151566E-1,-4.913282394E-2,5.252265930E-2,1.375211149E-1
1.238964320E1,1.077804565E-1,-1.797378063E-2,6.907415390E-2,1.292707327E-1
1.239784601E1,1.006517410E-1,-3.718578815E-2,7.615852356E-2,1.315814444E-1
1.240607320E1,9.576988220E-2,-2.283871174E-2,7.869148254E-2,1.260389881E-1
1.241427801E1,7.410049438E-2,8.043646812E-3,5.008316040E-2,8.979925655E-2
1.242251416E1,7.650947571E-2,-2.071475983E-2,4.286909103E-2,9.011415046E-2
1.243071970E1,6.690311432E-2,-2.788233757E-2,4.770612717E-2,8.677168906E-2
1.243892420E1,7.657051086E-2,-1.326084137E-2,4.524421692E-2,8.992181166E-2
1.244715347E1,6.217956543E-2,-3.211450577E-2,5.493688583E-2,8.897022683E-2
1.245535786E1,1.101570129E-1,-6.067919731E-2,6.202268600E-2,1.402260534E-1
1.246359305E1,1.341905594E-1,-5.587077141E-2,6.667423248E-2,1.599190502E-1
1.247179716E1,1.270923615E-1,-5.342423916E-2,6.895589828E-2,1.541477654E-1
1.247999986E1,1.150665283E-1,-4.633593559E-2,6.901407242E-2,1.419516363E-1
1.248822705E1,1.126556396E-1,-3.918492794E-2,5.466699600E-2,1.312068298E-1
1.249643097E1,1.005201340E-1,-2.970278263E-2,4.531288147E-2,1.141919868E-1
1.250469620E1,9.562873840E-2,-5.716085434E-3,3.351163864E-2,1.014916704E-1
1.251289889E1,8.362960815E-2,-1.543676853E-2,3.830766678E-2,9.327208863E-2
1.252110197E1,1.003303528E-1,-3.207623959E-2,3.124380112E-2,1.098691947E-1
1.252933039E1,1.003265381E-1,-2.719867229E-2,4.084968567E-2,1.116865204E-1
1.253753428E1,1.003856659E-1,-3.158557415E-2,5.283594131E-2,1.177563888E-1
1.254574397E1,9.567737579E-2,-2.162301540E-2,6.000232697E-2,1.149869309E-1
1.255394862E1,1.171445847E-1,-2.861559391E-2,6.735801697E-2,1.381260597E-1
1.256215220E1,1.003513336E-1,-1.636612415E-2,4.832935333E-2,1.125787128E-1
1.257038489E1,9.313774109E-2,-3.066539764E-2,6.515312195E-2,1.177282240E-1
1.257858624E1,7.387542725E-2,7.668733597E-3,5.096054077E-2,9.007421907E-2
1.258683101E1,1.000328064E-1,-2.345442772E-2,4.644393921E-2,1.127550976E-1
1.259503262E1,8.563137054E-2,-3.047907352E-2,6.330013275E-2,1.107637682E-1
1.260323362E1,8.326435089E-2,6.723403931E-4,5.847787857E-2,1.017500194E-1
1.261145755E1,1.096162796E-1,-2.560949326E-2,5.368137360E-2,1.247127290E-1
1.261966001E1,1.288385391E-1,-4.237854481E-2,4.878520966E-2,1.441364177E-1
1.262789643E1,1.120672226E-1,-2.330064774E-2,4.878234863E-2,1.244254801E-1
1.263610028E1,1.049385071E-1,-1.860654354E-2,6.064510345E-2,1.226218672E-1
1.264430316E1,1.169557571E-1,-2.823245525E-2,4.619932175E-2,1.288801691E-1
1.265252759E1,9.297752380E-2,-1.889491081E-2,5.576801300E-2,1.100541179E-1
1.266072982E1,9.773540497E-2,-1.650953293E-2,5.102300644E-2,1.114814839E-1
1.266896489E1,8.583354950E-2,-4.473924637E-3,5.572366714E-2,1.024331065E-1
1.267716651E1,8.111286163E-2,-1.144015789E-2,4.849433899E-2,9.519387821E-2
1.268536728E1,1.195316315E-1,-2.816283703E-2,5.072832108E-2,1.328695558E-1
1.269359343E1,9.807682037E-2,-3.755772114E-2,4.824066162E-2,1.155716511E-1
1.270179708E1,9.818363190E-2,-3.978979588E-2,5.290985107E-2,1.184175062E-1
1.271000578E1,1.269474030E-1,-4.929804802E-2,5.048513412E-2,1.452401096E-1
1.271821155E1,1.125564575E-1,-4.205679893E-2,6.969118118E-2,1.389049718E-1
1.272641632E1,1.173868179E-1,-1.594340801E-2,5.280923843E-2,1.297022473E-1
1.273464478E1,1.101655960E-1,-3.996968269E-2,5.523729324E-2,1.295576808E-1
1.274285047E1,1.388807297E-1,-3.288042545E-2,3.848028183E-2,1.478164793E-1
1.275111997E1,8.855152130E-2,-3.277969360E-2,4.816102982E-2,1.059970048E-1
1.275932428E1,1.029195786E-1,-3.991580009E-2,4.338073730E-2,1.186069101E-1
1.276752858E1,9.090709686E-2,-3.755736351E-2,2.188348770E-2,1.007647897E-1
1.277575682E1,8.621215820E-2,-1.348876953E-2,5.050373077E-2,1.008221699E-1
1.278396032E1,1.077518463E-1,-1.825642586E-2,4.573488235E-2,1.184712494E-1
1.279219535E1,1.127061844E-1,-2.768075466E-2,4.791831970E-2,1.255590440E-1
1.280039855E1,1.151590347E-1,-3.477513790E-2,4.545831680E-2,1.285977141E-1
1.280860174E1,1.269731522E-1,-2.293634415E-2,5.763387680E-2,1.413149709E-1
1.281682832E1,1.004581451E-1,-2.774322033E-2,5.790042877E-2,1.192224176E-1
1.282503224E1,7.145500183E-2,-3.513371944E-2,6.065607071E-2,1.000967254E-1
1.283327739E1,7.608604431E-2,5.413413048E-3,4.648828506E-2,8.932833721E-2
1.284148043E1,5.920028687E-2,-1.378250122E-2,6.342840195E-2,8.785097312E-2
1.284968432E1,8.305740356E-2,1.498723030E-2,6.596469879E-2,1.071190499E-1
1.285791305E1,1.238431931E-1,-8.860349655E-3,4.670381546E-2,1.326532647E-1
1.286611620E1,1.145095825E-1,-2.067077160E-2,5.595493317E-2,1.291149869E-1
1.287432635E1,1.361942291E-1,-1.105618477E-2,7.012033463E-2,1.535837511E-1
1.288253220E1,1.266784668E-1,-2.290964127E-2,7.245397568E-2,1.477222536E-1
1.289073666E1,1.385049820E-1,-3.896713257E-3,8.460712433E-2,1.623489449E-1
1.289896597E1,9.514141083E-2,-2.778530121E-2,6.826972961E-2,1.203522621E-1
1.290717070E1,8.998298645E-2,-2.067160606E-2,6.642150879E-2,1.137368453E-1
1.291540897E1,8.018589020E-2,-1.097249985E-2,4.045200348E-2,9.047948566E-2
1.292361374E1,8.975028992E-2,-2.283596992E-2,3.810596466E-2,1.001432005E-1
1.293181993E1,1.016626358E-1,-2.744901180E-2,5.500125885E-2,1.188018444E-1
1.294005012E1,7.764816284E-2,-3.687798977E-2,4.318094254E-2,9.619676253E-2
1.294825466E1,1.279516220E-1,-5.086100101E-2,4.563760757E-2,1.450560244E-1
1.295648820E1,1.038827896E-1,-3.153324127E-2,4.827213287E-2,1.188115234E-1
1.296469155E1,1.325216293E-1,-5.033528805E-2,5.808258057E-2,1.531966371E-1
1.297289366E1,1.012439728E-1,-4.050242901E-2,3.683567047E-2,1.150984596E-1
1.298112108E1,1.154594421E-1,-5.010211468E-2,2.747964859E-2,1.288263784E-1
1.298932397E1,8.430004120E-2,-3.074085712E-2,2.998352051E-2,9.460712840E-2
1.299759262E1,7.935428619E-2,-5.682241917E-2,3.028869629E-2,1.021924419E-1
1.300579766E1,9.145832062E-2,-4.717504978E-2,4.207992554E-2,1.111792690E-1
1.301400182E1,9.868049622E-2,-2.060949802E-2,3.489494324E-2,1.066782490E-1
1.302223058E1,1.227302551E-1,-3.238105774E-2,5.393934250E-2,1.379155578E-1
1.303043512E1,1.012325287E-1,-8.403420448E-3,7.781410217E-2,1.279596688E-1
1.303864505E1,1.228752136E-1,-2.261483669E-2,6.334352493E-2,1.400790888E-1
1.304684885E1,1.083374023E-1,-2.033686638E-2,6.357431412E-2,1.272488676E-1
1.305505320E1,9.397602081E-2,-3.618359566E-3,6.116390228E-2,1.121855960E-1
1.306327974E1,7.710838318E-2,-2.034986019E-2,5.175924301E-2,9.507280791E-2
1.307148432E1,8.893966675E-2,-2.752292156E-2,3.042840958E-2,9.794724928E-2
1.307973005E1,6.979846954E-2,-1.810741425E-2,5.430698395E-2,9.027155314E-2
1.308793274E1,1.130924225E-1,-4.193055630E-2,4.924964905E-2,1.302827521E-1
1.309613547E1,1.204319000E-1,-3.963565826E-2,5.377244949E-2,1.377182060E-1
1.310436420E1,1.135177612E-1,-3.715896606E-2,4.380893707E-2,1.272253663E-1
1.311256793E1,1.280059814E-1,-4.678976536E-2,6.515502930E-2,1.510628719E-1
1.312080166E1,1.065301895E-1,-3.005874157E-2,5.306625366E-2,1.227527454E-1
1.312900524E1,1.185188293E-1,-1.332569122E-2,4.824304581E-2,1.286533265E-1
1.313720935E1,8.501052856E-2,3.314971924E-3,6.495428085E-2,1.070366181E-1
1.314543793E1,8.510398865E-2,-4.929113388E-2,6.243610382E-2,1.164927973E-1
1.315363908E1,8.279037476E-2,-3.229856491E-2,4.322433472E-2,9.882199431E-2
1.316187339E1,9.482288361E-2,-1.319050789E-2,4.551076889E-2,1.060028247E-1
1.317007570E1,1.115016937E-1,-1.158595085E-3,4.086256027E-2,1.187590791E-1
1.317827797E1,1.067943573E-1,-1.056396961E-2,7.190895081E-2,1.291802207E-1
1.318650589E1,1.236314774E-1,-2.482843399E-2,7.660293579E-2,1.475439023E-1
1.319471039E1,1.164350510E-1,-1.277828217E-2,7.664585114E-2,1.399821134E-1
