"Time (s)","Linear Acceleration x (m/s^2)","Linear Acceleration y (m/s^2)","Linear Acceleration z (m/s^2)","Absolute acceleration (m/s^2)"
1.116551500E-2,1.410341263E-2,-4.375219345E-2,-1.157861948E-1,1.245777010E-1
1.940674500E-2,-1.452207565E-2,4.414176941E-2,-1.050384045E-1,1.148584037E-1
2.761628400E-2,-6.437015533E-2,8.479976654E-2,-6.679362059E-2,1.256817610E-1
3.582716800E-2,-1.456499100E-2,6.599855423E-2,-8.089840412E-2,1.054158428E-1
4.404832200E-2,1.324176788E-2,-5.640983582E-4,-1.098349094E-1,1.106316860E-1
5.225909100E-2,4.803037643E-2,7.135391235E-3,-1.952441931E-1,2.011917637E-1
6.050959100E-2,1.042575836E-1,3.654861450E-2,-2.381396294E-1,2.625184337E-1
6.872039900E-2,1.171751022E-1,6.606292725E-2,-1.966813803E-1,2.382810951E-1
7.693032200E-2,1.322345734E-1,6.246089935E-2,-1.448135376E-1,2.058113384E-1
8.515624500E-2,1.398148537E-1,6.391477585E-2,-1.386620402E-1,2.070276631E-1
9.336732200E-2,9.443092346E-2,8.239269257E-2,-7.285684347E-2,1.449616319E-1
1.016097450E-1,4.888772964E-2,8.189439774E-2,2.139508724E-3,9.540062887E-2
1.098197840E-1,5.401277542E-2,6.669425964E-2,1.504760981E-2,8.713170915E-2
1.180701300E-1,9.314775467E-2,6.550598145E-2,2.998679876E-2,1.177571480E-1
1.262886680E-1,5.675315857E-2,6.586933136E-2,3.885865211E-3,8.703326818E-2
1.344980530E-1,5.238246918E-2,3.457593918E-2,-9.488642216E-3,6.347797239E-2
1.427475530E-1,6.267738342E-2,3.664636612E-2,3.555417061E-4,7.260535071E-2
1.509582450E-1,7.292747498E-2,4.598760605E-2,-9.372949600E-3,8.672444120E-2
1.591697450E-1,6.621122360E-2,5.067348480E-2,-5.470520258E-2,9.972154924E-2
1.673899760E-1,4.717826843E-2,4.601383209E-2,-8.287733793E-2,1.058853857E-1
1.756020530E-1,2.326822281E-2,4.142141342E-2,-9.904068708E-2,1.098462625E-1
1.838435910E-1,3.748750687E-2,5.121898651E-2,-9.984481335E-2,1.183118105E-1
1.920554370E-1,3.955841064E-2,3.954792023E-2,-7.859212160E-2,9.646568004E-2
2.002680140E-1,7.535457611E-2,6.831169128E-2,-6.374883652E-2,1.200363006E-1
2.084898220E-1,5.874729156E-2,5.373859406E-2,-7.263702154E-2,1.077739192E-1
2.166990910E-1,2.056264877E-2,2.723693848E-2,-6.733077765E-2,7.548580635E-2
2.249474370E-1,1.805734634E-2,1.292228699E-2,-5.982553959E-2,6.381338766E-2
2.331552450E-1,3.199100494E-2,2.523374557E-2,-8.128738403E-2,9.092747173E-2
2.413645140E-1,3.594779968E-2,3.787565231E-2,-1.362907887E-1,1.459520072E-1
2.495910910E-1,6.143569946E-2,5.060482025E-2,-1.128879189E-1,1.381263018E-1
2.578022060E-1,7.950687408E-2,4.681730270E-2,-1.282106042E-1,1.579593678E-1
2.660450140E-1,9.267759323E-2,4.729270935E-3,-1.189148426E-1,1.508384635E-1
2.742549750E-1,1.393795013E-3,1.344494820E-1,-1.265799999E-2,1.350512156E-1
2.824658980E-1,1.347446442E-2,1.920819283E-1,9.537816048E-2,2.148814135E-1
2.906862440E-1,7.809495926E-2,9.174871445E-2,9.373050928E-2,1.526501151E-1
2.988965910E-1,5.936479568E-2,5.803632736E-2,5.421316624E-2,9.915372738E-2
3.071475140E-1,2.173137665E-2,5.036211014E-2,3.485620022E-3,5.496129925E-2
3.153572060E-1,3.433895111E-2,1.875591278E-2,-2.794718742E-2,4.808318950E-2
3.235665900E-1,1.344203949E-2,3.925323486E-3,-1.002909541E-1,1.012638735E-1
3.317837440E-1,-1.951074600E-2,1.791954041E-2,-1.608604789E-1,1.630272149E-1
3.399921290E-1,1.410865784E-2,1.079130173E-2,-1.715375185E-1,1.724547090E-1
3.482322060E-1,4.030418396E-2,3.493070602E-2,-1.626139283E-1,1.711369953E-1
3.564438210E-1,6.355237961E-2,4.978847504E-2,-1.045626402E-1,1.321027741E-1
3.646930520E-1,1.603188515E-1,-8.103227615E-2,-1.167160869E-1,2.142218683E-1
3.729125520E-1,5.160665512E-2,-6.464481354E-3,-1.323083639E-1,1.421637772E-1
3.811219360E-1,3.173875809E-2,3.917980194E-2,-6.901478767E-2,8.547190511E-2
3.893710130E-1,1.411948204E-1,3.427982330E-3,1.552969217E-2,1.420876480E-1
3.975797820E-1,3.513517380E-1,-1.449694633E-1,1.939892769E-3,3.800894004E-1
4.057888210E-1,6.357669830E-3,-6.092500687E-2,-4.046058655E-2,7.341209363E-2
4.140141670E-1,4.250812531E-2,-2.747058868E-2,-1.156985760E-2,5.191758435E-2
4.222234360E-1,1.951746941E-1,-7.237911224E-2,2.935737371E-2,2.102231017E-1
4.304637440E-1,3.567705154E-1,-1.528205872E-1,4.757434130E-2,3.910276851E-1
4.386721280E-1,4.672522545E-1,-3.501858711E-1,-8.744394779E-2,5.904246418E-1
4.468820520E-1,-9.284973145E-2,-1.198835850E0,-2.683848143E-1,1.232014154E0
4.551048980E-1,4.686632156E-1,-7.921328545E-1,-1.229849458E-1,9.285714650E-1
4.633132820E-1,6.124701500E-1,-5.922603607E-1,-4.310810566E-2,8.530828379E-1
4.715612440E-1,3.701672554E-1,-5.705776215E-1,2.993762493E-2,6.807928323E-1
4.797681670E-1,1.510038376E-1,-6.744852066E-1,1.865148544E-1,7.159051919E-1
4.879769360E-1,2.466583252E-1,-8.475427628E-1,2.837135792E-1,9.271798418E-1
4.961940510E-1,3.735022545E-1,-9.537887573E-1,2.725111246E-1,1.059943037E0
5.044021670E-1,3.398060799E-1,-9.997506142E-1,2.373237610E-1,1.082262459E0
5.126423590E-1,3.461723328E-1,-1.044474602E0,1.973303556E-1,1.117900598E0
5.208502440E-1,2.094225883E-1,-1.079206944E0,4.759150743E-2,1.100368302E0
5.290580900E-1,8.591127396E-2,-7.456917763E-1,3.431659937E-2,7.514084117E-1
5.372788200E-1,-1.820363998E-1,-4.603724480E-1,7.329159975E-2,5.004514965E-1
5.454898590E-1,-5.086245537E-1,-2.513966560E-1,1.146858931E-1,5.788368245E-1
5.537402820E-1,-5.606245995E-1,-2.367873192E-1,2.813347578E-1,6.704606044E-1
5.619496280E-1,-3.426551819E-3,-3.562965393E-1,5.786970258E-1,6.795948888E-1
5.701600510E-1,3.664879799E-1,-7.732300758E-1,9.098057151E-1,1.248977433E0
5.783873590E-1,4.799704552E-1,-1.034666538E0,1.201536775E0,1.656682560E0
5.865982820E-1,1.513242722E-2,-1.100918770E0,9.762575626E-1,1.471506017E0
5.948381280E-1,-4.194955826E-1,-8.704442978E-1,5.118533373E-1,1.093454918E0
6.030479360E-1,-9.328312874E-1,-7.444891930E-1,9.731766582E-2,1.197459434E0
6.112969360E-1,-6.479506493E-1,-9.571757317E-1,-2.959972620E-2,1.156244597E0
6.195175510E-1,-9.516205788E-1,-9.639425278E-1,3.613165021E-2,1.355017498E0
6.277278590E-1,-7.048768997E-1,-8.291792870E-1,1.327269673E-1,1.096360425E0
6.359763970E-1,-2.719922066E-1,-9.359560013E-1,1.675305963E-1,9.889691084E-1
6.441853580E-1,2.786540985E-2,-8.657116890E-1,1.373267770E-1,8.769788214E-1
6.523947050E-1,3.831863403E-3,-4.202413559E-1,4.741857648E-1,6.336163034E-1
6.606123970E-1,-2.079205513E-1,-1.381683350E-1,3.901388943E-1,4.631736190E-1
6.688213970E-1,-3.668818474E-1,8.663845062E-2,5.457940102E-1,6.633246661E-1
6.770612040E-1,-4.418368340E-1,4.974269867E-2,5.420132279E-1,7.010509705E-1
6.852692430E-1,5.744037628E-1,-2.737779617E-1,5.535843968E-1,8.434155201E-1
6.934774740E-1,7.883677483E-1,-6.546235085E-1,6.604995131E-1,1.219145295E0
7.016982430E-1,7.691564560E-1,-8.295855522E-1,8.248828650E-1,1.400087706E0
7.099072040E-1,1.844506264E-1,-1.376805305E0,1.240214705E0,1.862188873E0
7.181418970E-1,-2.356295586E-1,-2.660504341E0,1.645258307E0,3.136985741E0
7.263515500E-1,-1.735863686E-1,-3.324224472E0,1.702788353E0,3.738995686E0
7.345620120E-1,5.227999687E-1,-4.335519314E0,1.570973516E0,4.640905657E0
7.428147810E-1,4.923071861E-1,-5.335277081E0,9.874614477E-1,5.448176576E0
7.510239350E-1,-2.837600708E-1,-6.179084778E0,1.858244836E-1,6.188387448E0
7.592503580E-1,-1.064170837E0,-6.477702141E0,-6.238887310E-1,6.594112658E0
7.674607810E-1,-1.266751528E0,-6.622044563E0,-1.233653665E0,6.854052451E0
7.756716660E-1,-1.517786980E0,-6.980972290E0,-1.163661957E0,7.238215290E0
7.839106660E-1,-1.682132721E0,-7.334038258E0,-1.084510803E0,7.602226735E0
7.921200120E-1,-1.871057153E0,-7.285987854E0,-8.614796400E-1,7.571566618E0
8.003549730E-1,-2.334890842E0,-7.662614346E0,-7.673516273E-1,8.047123857E0
8.085650890E-1,-2.561969042E0,-7.646123886E0,-5.514951348E-1,8.082762073E0
8.167744730E-1,-2.577504158E0,-7.837696075E0,1.804076433E-1,8.252608943E0
8.250170500E-1,-2.577162266E0,-8.157534599E0,5.537188053E-1,8.572849036E0
8.332257420E-1,-2.754134893E0,-7.635841370E0,8.908473253E-1,8.166084826E0
8.414484730E-1,-3.040023804E0,-6.117594242E0,1.546694994E0,7.004210837E0
8.496560500E-1,9.180603027E-1,4.212400436E0,3.060585856E-1,4.322131883E0
8.579056650E-1,7.824859142E0,1.624104500E1,-5.826690674E0,1.894598341E1
8.661442420E-1,5.743950844E0,2.501125336E1,-1.318927956E1,2.885329896E1
8.743540880E-1,-3.925969601E0,2.431678772E1,-1.384379101E1,2.825544110E1
8.825891650E-1,-1.307140160E1,2.329764748E1,-1.253908730E1,2.951051724E1
8.908002420E-1,-1.704075813E1,2.001759720E1,-7.535522461E0,2.734731676E1
8.990112420E-1,-1.461735058E1,1.361755657E1,-7.265781760E-1,1.999081541E1
9.072606270E-1,-1.044348240E1,6.560832977E0,6.142245770E0,1.377817249E1
9.154695880E-1,-7.625045776E0,5.025339127E-1,1.729195786E1,1.890517574E1
9.236930880E-1,-4.667310238E0,-2.412960052E0,1.638341713E1,1.720530494E1
9.318999730E-1,-3.960992813E0,-3.266418457E0,1.007055473E1,1.130376160E1
9.401079340E-1,-3.331598997E0,-3.298031330E0,5.206736565E0,7.006187850E0
9.483473570E-1,-2.470313549E0,-3.254009247E0,1.857443094E0,4.487885923E0
9.565558190E-1,-9.714426398E-1,-2.899727345E0,-8.800736666E-1,3.182239641E0
9.647912420E-1,5.828939676E-1,-2.319667339E0,-2.865790367E0,3.732743813E0
9.730008190E-1,8.683908582E-1,-1.874462605E0,-4.149662971E0,4.635452029E0
9.812103570E-1,3.845639825E-1,-1.666934967E0,-4.286608696E0,4.615363014E0
9.894535880E-1,-1.693513870E0,-1.797083378E0,-4.311551094E0,4.968598468E0
9.976629730E-1,-2.967174292E0,-1.609585762E0,-3.363323927E0,4.765169193E0
1.005896472E0,-1.692183614E0,-1.458745003E0,-1.151566505E0,2.513469272E0
1.014106357E0,-6.145423651E-1,-6.041374207E-1,1.709734201E-1,8.785648820E-1
1.022316472E0,-3.075657785E-1,7.809543610E-2,6.300879121E-1,7.054830843E-1
1.030526895E0,-3.964464068E-1,2.677907944E-1,1.230845213E0,1.320553521E0
1.038736742E0,-1.321895599E0,4.178037643E-1,1.425642252E0,1.988573306E0
1.046976049E0,-1.885404110E0,3.009681702E-1,1.032560706E0,2.170601785E0
1.055185511E0,-1.583377481E0,2.240753174E-2,6.105381250E-1,1.697157372E0
1.063396357E0,-1.293817043E0,-2.199440002E-1,4.948454499E-1,1.402572609E0
1.071613126E0,-1.111542940E0,-3.622808456E-1,4.182386994E-1,1.241651613E0
1.079823472E0,-9.188842177E-1,-4.868640900E-1,3.749098182E-1,1.105414954E0
1.088065818E0,-7.358207107E-1,-5.634813309E-1,2.119911909E-1,9.507279282E-1
1.096277280E0,-4.140565991E-1,-6.287117004E-1,3.302454948E-3,7.528161633E-1
1.104530549E0,1.240122318E-2,-7.550392151E-1,-9.268486500E-2,7.608077884E-1
1.112743511E0,3.119841814E-1,-7.364263535E-1,-2.468919754E-1,8.370266131E-1
1.120954164E0,6.157450676E-1,-7.297344208E-1,-2.222368717E-1,9.803282819E-1
1.129204434E0,9.390218854E-1,-6.547870636E-1,-3.989946842E-2,1.145469409E0
1.137416087E0,1.190193176E0,-4.964160919E-1,1.150677204E-1,1.294692749E0
1.145627703E0,1.346223116E0,-3.071708679E-1,2.572535276E-1,1.404581787E0
1.153848164E0,1.411581278E0,-5.153751373E-2,3.270105124E-1,1.449880579E0
1.162060587E0,1.484712005E0,2.676372528E-1,2.421005964E-1,1.527943760E0
1.170303164E0,1.652796268E0,3.980197906E-1,1.433186531E-1,1.706076052E0
1.178512472E0,1.771094203E0,4.476995468E-1,1.492453814E-1,1.832889452E0
1.186724356E0,1.921031952E0,4.882688522E-1,1.621893644E-1,1.988737193E0
1.194946703E0,1.966484547E0,2.994394302E-1,1.561524868E-1,1.995271672E0
1.203157702E0,1.588434458E0,-1.151561737E-2,1.064469814E-1,1.592038817E0
1.211407856E0,2.789502144E-1,-2.061529160E-1,1.967077255E-1,3.987557851E-1
1.219617933E0,-4.997739792E-1,-3.148441315E-1,3.669723272E-1,6.953916496E-1
1.227827510E0,-7.080413103E-1,-3.943958282E-1,4.236365557E-1,9.145154442E-1
1.236052779E0,-7.121596336E-1,-4.109525681E-1,3.683393002E-1,9.009590429E-1
1.244261856E0,-6.361230612E-1,-3.833980560E-1,3.058276176E-1,8.032292014E-1
1.252502741E0,-7.694461346E-1,-4.845323563E-1,1.337007284E-1,9.190728171E-1
1.260712241E0,-6.101810932E-1,-5.075769424E-1,-2.976584435E-2,7.942552011E-1
1.268923856E0,-5.093827248E-1,-2.684841156E-1,1.807749271E-2,5.760913785E-1
1.277144856E0,-5.010746717E-1,-5.425033569E-1,-1.800072193E-2,7.387216965E-1
1.285358125E0,-3.181695938E-1,-8.447418213E-1,-2.129361629E-1,9.274494296E-1
1.293607818E0,-2.818651199E-1,-1.027266502E0,-3.544685841E-1,1.122663079E0
1.301819125E0,-2.818183899E-1,-1.106373787E0,-3.386733532E-1,1.190875393E0
1.310029164E0,-2.148354053E-1,-1.189813614E0,-2.189441919E-1,1.228717724E0
1.318248048E0,-2.551963329E-1,-1.356457233E0,-1.816327572E-1,1.392153674E0
1.326458856E0,-9.581756592E-2,-1.504676819E0,-2.970610857E-1,1.536710325E0
1.334700048E0,1.482486725E-1,-1.398890495E0,-4.201517105E-1,1.468127974E0
1.342909971E0,-9.982323647E-2,-1.482763767E0,-7.903838158E-2,1.488220459E0
1.351158548E0,-7.529225349E-1,-1.764497757E0,6.983473301E-1,2.041576271E0
1.359397394E0,-9.498875141E-1,-1.383957386E0,4.802423716E-1,1.745925849E0
1.367605856E0,-6.621229649E-1,-7.416591644E-1,-3.282527924E-1,1.047002881E0
1.375851433E0,-6.273307800E-1,-3.021259308E-1,-6.996245384E-1,9.870655907E-1
1.384061048E0,-7.620015144E-1,7.698345184E-2,-6.778428555E-1,1.022762776E0
1.392269356E0,-1.040354490E0,1.195459366E-1,-4.147593975E-1,1.126345442E0
1.400493702E0,-1.269953012E0,-5.694456100E-1,-1.719796658E-1,1.402364418E0
1.408700740E0,-1.407943964E0,-1.541063786E0,1.609504223E-1,2.093582775E0
1.416925779E0,-1.404798508E0,-2.255856514E0,3.926393986E-1,2.686356856E0
1.425133663E0,-1.195811033E0,-2.780371189E0,6.630682945E-1,3.098400804E0
1.433341279E0,-8.465974331E-1,-3.040519714E0,7.267477512E-1,3.238772860E0
1.441580471E0,-2.687625885E-1,-3.207946301E0,3.302431107E-1,3.236079929E0
1.449787702E0,2.755322456E-1,-3.221656799E0,-3.507490158E-1,3.252386112E0
1.458025471E0,6.320333481E-1,-2.921818733E0,-9.169251919E-1,3.126858275E0
1.466234240E0,9.229226112E-1,-2.667374134E0,-1.314146280E0,3.113462921E0
1.474443509E0,1.301986217E0,-2.423857212E0,-1.431218624E0,3.101393017E0
1.482694124E0,1.387170315E0,-2.055500507E0,-1.476987600E0,2.886315331E0
1.490902894E0,1.681497574E0,-1.836307049E0,-1.632236958E0,2.977189136E0
1.499134201E0,2.200366497E0,-1.612926483E0,-1.743740320E0,3.237865789E0
1.507342894E0,2.588992596E0,-1.109414577E0,-1.629976034E0,3.254305646E0
1.515550201E0,2.370132446E0,-3.639373779E-1,-1.484306335E0,2.820131828E0
1.523759201E0,1.346717834E0,4.304881096E-1,-1.149536848E0,1.822197548E0
1.531967778E0,-2.030658722E-2,9.232439995E-1,-6.145353317E-1,1.109254486E0
1.540209586E0,-8.149566650E-1,9.015398026E-1,-2.489819527E-1,1.240532303E0
1.548417701E0,-9.975867271E-1,6.419458389E-1,6.388602257E-1,1.347373789E0
1.556624855E0,-4.938097000E-1,3.938608170E-1,9.453659058E-1,1.136965725E0
1.564841586E0,-3.545904160E-2,6.523661613E-1,1.132492781E0,1.307432159E0
1.573048701E0,5.655937195E-1,2.599009037E0,1.047429442E0,2.858645250E0
1.581283547E0,1.954719067E0,4.679996490E0,1.725184917E-1,5.074746931E0
1.589491432E0,2.292724609E0,4.724492073E0,2.733209133E-1,5.258527912E0
1.597740855E0,1.137397766E0,2.678879738E0,1.922030449E-1,2.916678306E0
1.605977162E0,6.215660572E0,-1.177001476E0,-6.675132275E0,9.196584132E0
1.614185086E0,3.280537128E0,-3.449615717E0,-4.176120281E0,6.332594496E0
1.622417124E0,3.480971813E0,-4.403171062E0,-4.701860428E0,7.322060615E0
1.630625893E0,6.117963791E0,-4.142421246E0,-2.437912464E0,7.780266827E0
1.638835778E0,4.266239643E0,-2.328517914E0,-2.632720947E0,5.527568720E0
1.647080470E0,4.445277691E0,-1.037760019E0,-4.985822678E0,6.759871846E0
1.655290932E0,3.124376297E0,-7.306108475E-1,-3.287041903E0,4.593491474E0
1.663515508E0,2.671770096E0,-6.042990685E-1,-2.194594145E0,3.509953884E0
1.671724470E0,4.184306145E0,-8.578093052E-1,-2.904806852E0,5.165477477E0
1.679934239E0,2.514780045E0,-1.200216293E0,-2.345562935E0,3.642293687E0
1.688174047E0,2.076090813E0,-1.176387310E0,-4.109940529E0,4.752436356E0
1.696384739E0,1.527799606E0,-1.006747246E0,-4.123300552E0,4.511021957E0
1.704625162E0,8.033647537E-1,-6.543340683E-1,-1.707584620E0,1.997346548E0
1.712833970E0,1.554461479E0,2.123308182E-2,-1.613092661E0,2.240283301E0
1.721044277E0,2.469691277E0,-3.934144974E-2,-1.153104544E0,2.725907709E0
1.729294354E0,2.744889259E0,-1.062965393E-1,-2.503396749E0,3.716545612E0
1.737503124E0,1.804794312E0,2.010226250E-1,-3.944922686E0,4.342822538E0
1.745730354E0,2.772407532E-1,4.915399551E-1,-3.609172583E0,3.653026238E0
1.753939508E0,-4.852352142E-1,5.707554817E-1,-2.520333767E0,2.629314993E0
1.762148585E0,-7.291479111E-1,7.483534813E-1,-5.314066410E-1,1.172212706E0
1.770385662E0,-1.161433220E0,9.968571663E-1,8.158079982E-1,1.734414606E0
1.778594931E0,-1.280376434E0,1.289263725E0,8.034795523E-1,1.986742096E0
1.786834777E0,-7.544078827E-1,9.352078438E-1,1.013957500E0,1.572213337E0
1.795043969E0,-6.440162659E-3,2.216682434E-1,1.081046104E0,1.103557414E0
1.803251969E0,1.994361877E-1,-2.316169739E-1,8.905713558E-1,9.415617640E-1
1.811503162E0,-8.080635071E-1,-4.981436729E-1,3.467711210E-1,1.010625529E0
1.819711892E0,-9.381842613E-1,-1.126009703E0,9.527508020E-1,1.748090858E0
1.827942200E0,-3.606824875E-1,-1.929341316E0,2.219841480E0,2.963131109E0
1.836149700E0,-1.707296371E-1,-2.245718956E0,3.217252254E0,3.927227305E0
1.844399931E0,1.332187653E-2,-3.009219170E0,3.113443613E0,4.330024089E0
1.852610815E0,-1.061383724E0,-4.754993916E0,-1.881524026E-1,4.875643945E0
1.860819969E0,-2.285597324E0,-3.423657417E0,-4.475592613E0,6.080815281E0
1.869059431E0,-5.583629608E-1,-1.042052984E0,-5.976061821E0,6.091876436E0
1.877267469E0,1.099731445E0,-9.379301071E-1,8.826147318E-1,1.693555698E0
1.885476508E0,4.079808235E0,-2.429868221E0,4.085542202E0,6.264243761E0
1.893725469E0,3.700237274E0,-3.808247566E0,3.006179810E0,6.101772075E0
1.901933354E0,1.970313072E0,-4.190475464E0,8.857131004E-2,4.631421282E0
1.910157584E0,2.523517609E-1,-3.223985910E0,-9.815429449E-1,3.379525575E0
1.918365777E0,-2.275657654E-1,-3.098001480E-1,-6.261917353E-1,7.347641789E-1
1.926574623E0,1.017620087E0,3.607374668E0,-1.610623598E-1,3.751618813E0
1.934814623E0,2.918786049E0,5.640478134E0,-4.556692839E-1,6.367255302E0
1.943024161E0,3.186209679E0,4.193647861E0,-2.423298597E0,5.797498650E0
1.951257315E0,1.762844086E0,8.605713844E-1,-3.194946289E0,3.749117785E0
1.959466123E0,8.570671082E-1,-1.959116697E0,-7.114088535E-2,2.139570818E0
1.967675238E0,7.524547577E-1,-2.562139511E0,3.581473351E0,4.467403989E0
1.975921046E0,1.464614868E0,-5.962538719E-1,4.742746353E0,4.999425803E0
1.984129276E0,2.310948372E0,1.721096516E0,4.248129845E0,5.133153297E0
1.992362661E0,3.496358871E0,1.990146637E0,2.356891632E0,4.662633072E0
2.000572199E0,3.392998695E0,-2.255396843E-1,1.913025856E0,3.901663264E0
2.008782315E0,2.021475792E0,-2.360616684E0,2.332434654E0,3.885759504E0
2.017022507E0,1.476070404E0,-3.163592339E0,1.657695770E0,3.864589964E0
2.025233122E0,2.078579903E0,-3.727249622E0,6.020061970E-1,4.309906683E0
2.033473622E0,2.753909111E0,-3.727110147E0,3.623788357E-1,4.648299029E0
2.041682507E0,2.277033806E0,-2.205631018E0,3.858113289E-2,3.170359545E0
2.049891315E0,2.269065857E0,-5.702505112E-1,-1.645212173E-1,2.345402469E0
2.058108161E0,2.440016270E0,3.696351051E-1,9.349951744E-1,2.639038742E0
2.066317545E0,2.600595474E0,4.546256065E-1,1.106011868E0,2.862349300E0
2.074542468E0,1.039885998E0,6.712532043E-1,2.775237560E-1,1.268449127E0
2.082750276E0,-1.320956230E0,5.138497353E-1,-9.243298769E-1,1.692144389E0
2.090998622E0,-2.312439442E0,-2.659034729E-1,-1.394276977E0,2.713316995E0
2.099237391E0,-1.484912395E0,-1.030753613E0,-9.621528387E-1,2.047719687E0
2.107446276E0,-6.234793663E-1,-2.080901623E0,-1.099161863E0,2.434550243E0
2.115680314E0,-5.413889885E-1,-3.068149090E0,-1.357955456E0,3.398629708E0
2.123889584E0,-6.910171509E-1,-4.106723785E0,-1.792647481E0,4.533902286E0
2.132099660E0,-4.085893631E-1,-4.654977322E0,-2.224392653E0,5.175295335E0
2.140343737E0,-1.970815659E-1,-4.965911388E0,-2.947515011E0,5.778145187E0
2.148551391E0,-6.331872940E-1,-4.351767063E0,-2.267765045E0,4.947884500E0
2.156774468E0,-1.709822655E0,-3.144609213E0,-1.686587334E0,3.956846907E0
2.164980737E0,-2.330421448E0,-1.380033016E0,-1.605278492E0,3.148376453E0
2.173188122E0,-2.245889187E0,3.158731461E-1,-1.639253139E0,2.798382558E0
2.181426545E0,-2.187813282E0,1.530362129E0,-1.371316671E0,3.001507058E0
2.189634314E0,-1.792993546E0,2.253129482E0,-1.528516531E0,3.260027777E0
2.197864814E0,-1.736431599E0,2.656271935E0,-1.722921133E0,3.611015441E0
2.206071737E0,-1.613369942E0,2.295968533E0,-1.722810507E0,3.292796701E0
2.214278737E0,-1.473114491E0,1.466538429E0,-1.672483206E0,2.667958272E0
2.222492776E0,-1.367530346E0,6.532821655E-1,-9.605312347E-1,1.794306854E0
2.230701199E0,-1.166814804E0,-2.012825012E-1,-2.061438560E-1,1.201859693E0
2.238932929E0,-1.625985622E0,-1.234767437E0,2.050681114E-1,2.051958284E0
2.247140583E0,-2.423018456E0,-2.107547045E0,2.205929756E-1,3.218918179E0
2.255349352E0,-3.222561359E0,-2.353289604E0,1.150437832E0,4.152876218E0
2.263586391E0,-3.197242022E0,-1.849445343E0,1.083350658E0,3.849214630E0
2.271794237E0,-2.609620094E0,-7.978730202E-1,-2.028565407E-1,2.736397115E0
2.280034275E0,-1.521026134E0,4.573678970E-1,-4.473657608E-1,1.650103639E0
2.288243429E0,-5.739674568E-1,1.330873489E0,-7.107114792E-1,1.614240903E0
2.296451929E0,-3.398003578E-1,1.700655460E0,-2.367324829E-1,1.750352978E0
2.304695468E0,-2.103023529E-1,1.804846287E0,7.938728333E-1,1.982909800E0
2.312902737E0,-3.671569824E-1,1.744426727E0,1.909351826E0,2.612174047E0
2.321127314E0,-5.907483101E-1,1.637858391E0,2.259989262E0,2.852913447E0
2.329336583E0,-6.902103424E-1,1.257698536E0,2.392285347E0,2.789484738E0
2.337585467E0,-1.104807854E0,1.007331848E0,2.435513020E0,2.857803617E0
2.345800006E0,-1.480338573E0,6.658868790E-1,2.789728165E0,3.227598312E0
2.354006890E0,-1.893692493E0,5.942544937E-1,2.420998096E0,3.130565675E0
2.362244813E0,-2.016758680E0,7.653236389E-1,2.152872562E0,3.047604980E0
2.370451621E0,-1.667426586E0,7.802624702E-1,1.514886856E0,2.384114748E0
2.378659583E0,-1.273579597E0,9.029879570E-1,1.168807507E0,1.950257221E0
2.386878275E0,-9.676680565E-1,1.013576984E0,1.184913635E0,1.835140347E0
2.395087236E0,-9.725370407E-1,6.591801643E-1,1.170620918E0,1.658523476E0
2.403324467E0,-1.570975304E0,7.919058800E-1,1.572198391E0,2.359424953E0
2.411533621E0,-1.633437634E0,8.209705353E-1,1.896593571E0,2.634232012E0
2.419743198E0,-1.629702568E0,5.235219002E-1,2.474383831E0,3.008750735E0
2.427963390E0,-1.519688129E0,4.520039558E-1,2.984622002E0,3.379604722E0
2.436175429E0,-1.127143383E0,2.266378403E-1,2.839519024E0,3.063443357E0
2.444418198E0,-8.927264214E-1,3.426814079E-1,2.857922077E0,3.013653864E0
2.452626967E0,-4.641456604E-1,4.216432571E-1,2.489641190E0,2.567397025E0
2.460836390E0,-3.395175934E-2,2.588973045E-1,2.477097034E0,2.490821201E0
2.469054121E0,7.172784805E-1,4.210906029E-1,2.503991127E0,2.638518008E0
2.477263390E0,1.522150040E0,4.605350494E-1,2.339848042E0,2.829120381E0
2.485489582E0,1.766116142E0,3.767952919E-1,2.097342968E0,2.767668413E0
2.493698544E0,1.423037529E0,3.969197273E-1,1.848920345E0,2.366661683E0
2.501909967E0,9.155688286E-1,1.877918243E-1,1.519779205E0,1.784169522E0
2.510124082E0,5.013070107E-1,-2.049775124E-1,1.690106392E0,1.774763115E0
2.518334005E0,-2.335262299E-2,2.710056305E-2,2.176715851E0,2.177009803E0
2.526582505E0,1.404318810E-1,-2.738804817E-1,1.896681309E0,1.921492029E0
2.534793082E0,-2.548112869E-1,-2.879042625E-1,1.835150242E0,1.874991751E0
2.543003544E0,-7.532119751E-2,-4.380984306E-1,1.724541664E0,1.780911977E0
2.551231120E0,8.312511444E-2,-2.965340614E-1,1.642184258E0,1.670811590E0
2.559440197E0,7.412915230E-1,-1.753950119E-2,1.133604527E0,1.354577417E0
2.567674390E0,1.352044582E0,-3.010387421E-1,7.589011192E-1,1.579423878E0
2.575883966E0,1.767652512E0,-2.310342789E-1,7.985506058E-1,1.953370244E0
2.584132159E0,1.547769070E0,-1.095356941E-1,1.025777817E0,1.860055722E0
2.592342659E0,1.526839733E0,-1.636199951E-1,1.219072819E0,1.960650303E0
2.600550620E0,2.052300930E0,-9.501981735E-2,1.511159420E0,2.550405981E0
2.608784197E0,2.734277725E0,1.342291832E-1,4.819974899E-1,2.779678710E0
2.616993312E0,2.692445278E0,-1.450009346E-1,-1.918740273E-1,2.703165272E0
2.625202351E0,1.836357117E0,-2.783007622E-1,-4.729318619E-2,1.857927722E0
2.633416812E0,1.063660145E0,-1.813325882E-1,-2.820777893E-1,1.115267811E0
2.641624659E0,3.982305527E-1,-1.546082497E-1,-1.962156296E-1,4.700977103E-1
2.649860735E0,3.492183685E-1,-3.206357956E-1,-3.526954651E-1,5.908932843E-1
2.658069582E0,3.200078011E-1,-2.694625854E-1,-3.617515564E-1,5.530635282E-1
2.666277274E0,5.806832314E-1,7.306718826E-2,-1.998734474E-1,6.184506643E-1
2.674487312E0,5.024743080E-1,4.471101761E-1,-7.975158691E-1,1.043273455E0
2.682694620E0,8.214311600E-1,6.672625542E-1,-7.969355583E-1,1.324799891E0
2.690939389E0,1.102623463E0,6.403899193E-1,-5.633072853E-1,1.393984522E0
2.699149120E0,1.143774033E0,5.027379990E-1,-4.996566772E-1,1.345593300E0
2.707359928E0,8.737902641E-1,3.819956779E-1,-4.783320427E-1,1.066879406E0
2.715583620E0,5.164313316E-1,3.476376534E-1,-3.229627609E-1,7.013260321E-1
2.723792235E0,2.060594559E-1,1.726593971E-1,-6.123156548E-1,6.687318056E-1
2.732032389E0,-9.550809860E-2,8.988904953E-2,-5.818581581E-1,5.964568335E-1
2.740241043E0,1.786165237E-1,6.725406647E-2,-3.373661041E-1,3.876117390E-1
2.748449927E0,8.912758827E-1,4.234490395E-1,-3.639526367E-1,1.051733479E0
2.756668697E0,1.349487305E0,6.978425980E-1,-9.004845619E-1,1.766061359E0
2.764875850E0,1.806603909E0,7.959651947E-1,-1.105066299E0,2.262421225E0
2.773116889E0,2.021049500E0,7.092366219E-1,-1.284209013E0,2.497368706E0
2.781325120E0,1.866557598E0,5.315709114E-1,-1.510268211E0,2.459169569E0
2.789535312E0,1.658256054E0,4.379625320E-1,-1.408004284E0,2.219031407E0
2.797747504E0,1.394338131E0,3.153948784E-1,-9.703600407E-1,1.727787997E0
2.805955273E0,9.827303886E-1,1.749153137E-1,-3.649258614E-1,1.062791263E0
2.814188927E0,5.158371925E-1,2.393074036E-1,4.034662247E-2,5.700735852E-1
2.822397696E0,3.640604019E-2,1.879224777E-1,1.609635353E-1,2.500990146E-1
2.830646696E0,-5.844502449E-1,9.397268295E-2,-6.172370911E-2,5.951661702E-1
2.838856696E0,-1.065619946E0,5.668640137E-2,-2.148890495E-1,1.088547895E0
2.847064658E0,-1.627140999E0,6.532859802E-2,1.556677818E-1,1.635875336E0
2.855301812E0,-1.944826126E0,-1.077766418E-1,3.937115669E-1,1.987202371E0
2.863509273E0,-2.100312710E0,-1.626887321E-1,1.464936733E-1,2.111691620E0
2.871717619E0,-2.364996910E0,-1.055912971E-1,3.135180473E-1,2.388022921E0
2.879934773E0,-2.372765541E0,-4.883384705E-2,4.091258049E-1,2.408274275E0
2.888142619E0,-2.378092766E0,2.661514282E-2,3.583922386E-1,2.405094294E0
2.896383927E0,-2.144905329E0,1.731195450E-1,-8.343601227E-2,2.153497345E0
2.904592542E0,-1.631615877E0,7.952499390E-2,-5.175778866E-1,1.713587309E0
2.912801619E0,-1.241764069E0,3.024768829E-2,-5.000991821E-1,1.339026556E0
2.921015042E0,-9.248509407E-1,-1.066637039E-1,-1.987946033E-1,9.519693811E-1
2.929223619E0,-6.748466492E-1,-3.412523270E-1,2.282993793E-1,7.899314889E-1
2.937465042E0,-7.560973167E-1,-6.403942108E-1,3.070728779E-1,1.037343554E0
2.945675811E0,-4.994876385E-1,-8.169465065E-1,2.145047188E-1,9.812755830E-1
2.953885504E0,-3.617517948E-1,-7.182993889E-1,-2.146396637E-1,8.323992782E-1
2.962096311E0,-2.468428612E-1,-6.353402138E-1,-5.297642946E-1,8.632721432E-1
2.970305542E0,-3.503277302E-1,-3.507680893E-1,-8.551946878E-1,9.884966996E-1
2.978539311E0,-3.016722202E-1,-1.596364975E-1,-1.275182128E0,1.320067953E0
2.986746850E0,-3.990235329E-1,5.047607422E-2,-1.515999913E0,1.568446158E0
2.994954657E0,-5.273456573E-1,-5.401706696E-2,-1.805519581E0,1.881731182E0
3.003163465E0,-1.326936007E0,-5.828399658E-1,-2.187643051E0,2.624165336E0
3.011372273E0,-1.142771482E0,-6.637897491E-1,-1.823337317E0,2.251910847E0
3.019611811E0,-7.167897224E-1,-5.026035309E-1,-1.419091225E0,1.667398488E0
3.027819042E0,-5.894460678E-1,-6.798801422E-1,-1.299611330E0,1.580719230E0
3.036026965E0,-6.901140213E-1,-7.908468246E-1,-1.272265196E0,1.649349809E0
3.044250503E0,-9.697866440E-1,-5.284957886E-1,-1.654012442E0,1.988856729E0
3.052457619E0,-9.656770229E-1,-1.182956696E-1,-1.113549948E0,1.478688427E0
3.060695811E0,-6.108942032E-1,2.080640793E-1,-6.148869395E-1,8.913856275E-1
3.068902426E0,1.376762390E-1,3.582496643E-1,-2.945029140E-1,4.837659921E-1
3.077154426E0,5.130612850E-1,5.168237686E-1,-2.661627531E-1,7.753588209E-1
3.085373541E0,7.089531422E-1,5.994510651E-1,1.143819094E-1,9.354353844E-1
3.093581234E0,8.142375946E-1,5.827169418E-1,3.330956697E-1,1.055222545E0
3.101827734E0,9.321546555E-1,5.275859833E-1,4.922771454E-1,1.178811291E0
3.110034926E0,1.396230221E0,2.738666534E-1,1.323724627E0,1.943375585E0
3.118241811E0,1.644330740E0,-8.989620209E-2,1.883725882E0,2.502064769E0
3.126450541E0,1.743721485E0,-5.692195892E-1,1.844338655E0,2.601184468E0
3.134658964E0,1.461270094E0,-9.566183090E-1,8.841041327E-1,1.957567111E0
3.142890734E0,1.059313774E0,-1.379528999E0,-1.995282173E-1,1.750730545E0
3.151098926E0,6.326562166E-1,-1.646636009E0,-6.337566376E-1,1.874382968E0
3.159308541E0,4.504235983E-1,-1.861269474E0,-5.734342337E-1,1.999007827E0
3.167523657E0,4.120891094E-1,-1.832588673E0,-2.137351036E-2,1.878471587E0
3.175732657E0,2.208076715E-1,-1.489572525E0,9.711953402E-1,1.791871291E0
3.183954695E0,-8.414937854E-1,-7.320880890E-1,1.805352449E0,2.122112680E0
3.192164887E0,-1.693493128E0,-7.470607758E-2,2.468975067E0,2.994885282E0
3.200374272E0,-1.912677288E0,4.974718094E-1,2.690215111E0,3.338123717E0
3.208623618E0,-1.899971843E0,1.298014641E0,2.105399609E0,3.118884820E0
3.216834041E0,-1.883918762E0,2.096998215E0,1.636314869E0,3.259459735E0
3.225060041E0,-1.990011215E0,2.896782875E0,1.361687303E0,3.769043376E0
3.233269002E0,-2.440865755E0,3.424604416E0,1.741286993E0,4.551683362E0
3.241478541E0,-3.040523052E0,3.704533577E0,2.637935638E0,5.470562484E0
3.249716656E0,-3.889236450E0,3.290972710E0,3.446457863E0,6.150994500E0
3.257926848E0,-3.595561981E0,1.969058990E0,3.846712589E0,5.621606266E0
3.266161695E0,-2.557859898E0,5.610961914E-1,3.880518198E0,4.681441837E0
3.274370887E0,-1.299535632E0,-5.423612595E-1,3.337131739E0,3.622070794E0
3.282579618E0,-5.853875875E-1,-1.277820587E0,2.786195755E0,3.120639496E0
3.290797002E0,-1.629924774E-2,-1.912333012E0,2.193576336E0,2.910165005E0
3.299005694E0,1.939492226E-1,-2.305623531E0,1.634871125E0,2.833076025E0
3.307233194E0,2.495534420E-1,-2.625761032E0,8.702723384E-1,2.777457805E0
3.315444233E0,3.151879311E-1,-2.834474087E0,8.178478479E-2,2.853116810E0
3.323694464E0,1.728894711E-1,-2.959056377E0,-5.273419023E-1,3.010646923E0
3.331934810E0,-1.531012058E-1,-2.973433971E0,-9.755322933E-1,3.133115513E0
3.340144002E0,-5.546379089E-1,-2.918423176E0,-1.304579020E0,3.244494331E0
3.348380733E0,-6.133903265E-1,-2.753274441E0,-1.408100605E0,3.152699661E0
3.356590002E0,-4.767541885E-1,-2.576420784E0,-1.405050874E0,2.973113952E0
3.364800887E0,-3.379694223E-1,-2.311957359E0,-1.274890661E0,2.661713050E0
3.373051117E0,-3.897633553E-1,-2.120941162E0,-1.021838546E0,2.386306958E0
3.381258540E0,-6.958817244E-1,-1.929570675E0,-3.622504175E-1,2.082959368E0
3.389482502E0,-1.392701626E0,-1.923825741E0,5.518106818E-1,2.438281839E0
3.397688963E0,-2.249868870E0,-1.875588417E0,1.125651360E0,3.137966352E0
3.405895502E0,-2.800550938E0,-1.807252884E0,1.234618902E0,3.554368070E0
3.414103348E0,-3.303177834E0,-1.652731895E0,1.014520764E0,3.830373206E0
3.422310386E0,-3.302885294E0,-1.413554192E0,4.228134751E-1,3.617451859E0
3.430551079E0,-3.246335506E0,-1.095706940E0,9.011548758E-2,3.427446385E0
3.438760079E0,-2.913467169E0,-8.024511337E-1,5.384534597E-2,3.022435787E0
3.446967886E0,-2.620343685E0,-4.929695129E-1,2.179349661E-1,2.675203846E0
3.455176694E0,-2.743238449E0,3.205747604E-1,1.177174449E-1,2.764413638E0
3.463385963E0,-2.527795553E0,1.011115074E0,8.150151968E-1,2.841892648E0
3.471611078E0,-1.905673027E0,2.047573090E0,2.055096865E0,3.470960727E0
3.479820578E0,-1.442946911E0,3.204660416E0,4.680691242E0,5.853273842E0
3.488030309E0,-1.606714368E0,4.302947998E0,6.911657333E0,8.298668545E0
3.496270463E0,-2.255478144E0,5.230282784E0,6.760315418E0,8.839960645E0
3.504479348E0,-3.057024240E0,5.073750496E0,4.974751949E0,7.735405501E0
3.512718501E0,-3.545169353E0,4.047681808E0,3.432729721E0,6.382443663E0
3.520927309E0,-3.537068605E0,2.547048569E0,2.054722548E0,4.818733804E0
3.529137501E0,-2.646651745E0,1.023639679E0,1.447726011E0,3.185673281E0
3.537387578E0,-6.507852674E-1,-9.571533203E-1,1.332720876E0,1.765165396E0
3.545595694E0,3.786500096E-1,-2.731742859E0,1.830375671E0,3.309995465E0
3.553820617E0,-2.833113372E-1,-3.776856899E0,2.717720032E0,4.661643007E0
3.562027924E0,-1.211001039E0,-4.358108521E0,2.358661413E0,5.101266221E0
3.570276117E0,-1.415114641E0,-4.752923489E0,1.299376488E0,5.126520301E0
3.578514193E0,-1.431904197E0,-4.798988819E0,7.080721259E-1,5.057866097E0
3.586721040E0,-1.327927589E0,-4.592603683E0,4.549788237E-1,4.802333392E0
3.594952809E0,-1.058476210E0,-4.179286480E0,5.890427232E-1,4.351296209E0
3.603160347E0,-1.063777685E0,-3.480096817E0,7.861501575E-1,3.722999985E0
3.611368616E0,-1.362834215E0,-2.360653400E0,1.087618351E0,2.934776866E0
3.619614847E0,-1.598357916E0,-1.174379349E0,4.663180709E-1,2.037490472E0
3.627825039E0,-1.181256652E0,-3.301963806E-1,4.714772403E-1,1.314034899E0
3.636049962E0,-1.162432432E-1,2.276601791E-1,4.735426307E-1,5.381303484E-1
3.644258385E0,6.207237244E-1,8.367109299E-1,8.111842871E-1,1.320379896E0
3.652467001E0,9.920912981E-1,1.616893768E0,1.428397179E0,2.374638731E0
3.660705808E0,1.331223011E0,2.278555870E0,1.839002132E0,3.216504376E0
3.668912732E0,1.872538567E0,2.566430092E0,1.547206163E0,3.533668209E0
3.677143347E0,2.455870867E0,2.322936058E0,8.436222076E-1,3.484111375E0
3.685349885E0,2.867625952E0,1.931351662E0,1.558934152E-1,3.460881477E0
3.693557039E0,3.040489197E0,1.350488663E0,-7.176594138E-1,3.403443729E0
3.701805308E0,3.159521580E0,6.372938156E-1,-8.223278522E-1,3.326400925E0
3.710012654E0,3.047826052E0,-2.229919434E-1,-5.360299349E-1,3.102627457E0
3.718237308E0,2.754864693E0,-1.248219490E0,-2.822968364E-1,3.037601500E0
3.726444847E0,1.998678088E0,-2.012582779E0,-5.638360977E-2,2.836967158E0
3.734654731E0,1.131449819E0,-2.183979034E0,3.112213016E-1,2.479274453E0
3.742895193E0,6.934386492E-1,-2.262085915E0,9.574042559E-1,2.552354355E0
3.751104847E0,5.647783279E-1,-2.256895065E0,1.431670308E0,2.731708214E0
3.759276116E0,4.608279467E-1,-2.069374561E0,1.368180037E0,2.523210273E0
3.767485539E0,3.410357237E-1,-1.745015621E0,2.475823164E-1,1.795182967E0
3.775693039E0,-2.042770386E-2,-1.511952400E0,-7.546045780E-1,1.689924679E0
3.783915039E0,-4.681578875E-1,-1.407153130E0,-1.121308446E0,1.859189170E0
3.792129693E0,-5.945222974E-1,-1.518687248E0,-1.080417633E0,1.956315410E0
3.800365039E0,-3.944896460E-1,-1.637522221E0,-8.551260233E-1,1.889005458E0
3.808596616E0,-9.896647930E-2,-1.584495544E0,-5.015182495E-1,1.664914727E0
3.816841731E0,3.274303675E-1,-1.404079437E0,-4.104040861E-1,1.499026759E0
3.825054616E0,6.327221394E-1,-1.147648811E0,-4.575004578E-1,1.388071240E0
3.833265308E0,6.741826534E-1,-9.267330170E-1,-5.550091267E-1,1.273338708E0
3.841515885E0,1.005396128E0,-7.294178009E-1,-1.085068941E0,1.649316922E0
3.849725039E0,1.330047846E0,-6.720104218E-1,-1.139040947E0,1.875643772E0
3.857932615E0,1.456103325E0,-7.602510452E-1,-1.883072138E0,2.498835573E0
3.866150462E0,1.318196297E0,-8.491954803E-1,-2.606174707E0,3.041532680E0
3.874363885E0,2.478711605E-1,-8.289709091E-1,-2.667907238E0,2.804703534E0
3.882588385E0,-2.214524269E0,-2.484804153E0,-2.861151218E0,4.389140658E0
3.890817000E0,-4.393102646E0,9.101295471E-1,4.737575054E-1,4.511333819E0
3.899024923E0,-5.747884750E0,2.018568039E0,1.453379631E0,6.262995161E0
3.907263846E0,-7.257585526E0,4.089708328E0,1.406207561E0,8.448412962E0
3.915471538E0,-4.577730179E0,1.655366898E0,3.462206602E0,5.973502131E0
3.923704731E0,-4.730040073E0,5.132102966E-1,1.942299366E0,5.138987325E0
3.931913423E0,-3.429572582E0,-2.049846649E0,7.198133469E-1,4.059799334E0
3.940121615E0,-1.641947150E0,-3.246307373E0,-8.871531487E-1,3.744535046E0
3.948365230E0,4.464912415E-2,-4.207032204E0,-7.034463882E-1,4.265671146E0
3.956581154E0,1.287345648E0,-5.504049301E0,-2.508687019E0,6.184280725E0
3.964811884E0,2.132568359E0,-6.463843822E0,-2.059315681E0,7.111252059E0
3.973041692E0,3.742860317E0,-5.653914452E0,-3.660695553E0,7.705611196E0
3.981249846E0,4.632188320E0,-3.925536394E0,-4.704797268E0,7.681283874E0
3.989486576E0,5.946444988E0,-4.377949238E0,-3.937503338E0,8.368427574E0
3.997695730E0,5.681242943E0,-5.356062412E0,-7.023668289E-1,7.839467144E0
4.005928461E0,-9.113655090E-1,-4.355249405E-1,2.725507259E0,2.906657683E0
4.014135576E0,-3.591845512E0,4.429793358E0,2.474325180E0,6.216647688E0
4.022343346E0,2.393680573E0,-1.564716339E0,1.649744034E0,3.301469261E0
4.030593884E0,1.146427393E0,-5.278399944E0,-8.065595627E-1,5.461349656E0
4.038809115E0,5.052483082E-1,-5.109012604E0,-1.959401131E0,5.495137708E0
4.047035961E0,1.071772575E-1,-2.652148247E0,-1.337597370E0,2.972296084E0
4.055266230E0,-7.342958450E-2,-1.365518093E0,-5.097212791E-1,1.459399654E0
4.063500499E0,-2.689604282E0,-3.223986626E-1,-4.627704620E-1,2.748102726E0
4.071710576E0,-2.564742088E0,-6.714155674E-1,-1.896114349E0,3.259440208E0
4.079919884E0,-1.982280493E0,-1.682146549E0,-1.908465862E0,3.225103861E0
4.088160884E0,-4.781312943E0,3.830013275E-1,-2.052397728E0,5.217277058E0
4.096371576E0,-8.879013062E-1,-3.363518953E0,-2.821326256E-1,3.490161500E0
4.104581076E0,-8.016493320E-1,-7.534162998E-1,-4.621825218E0,4.750952128E0
4.112825153E0,4.566121101E-1,-3.147530556E-2,-5.295400620E0,5.315143745E0
4.121040999E0,1.560926914E0,5.617735386E-1,-5.834444046E0,6.065708505E0
4.129264961E0,1.842968941E0,4.387423992E-1,-6.034998894E0,6.325364895E0
4.137493114E0,1.837759495E0,-2.174806595E-1,-1.066599178E1,1.082534242E1
4.145702076E0,3.515405178E0,-3.428745270E-2,-8.775926590E0,9.453895319E0
4.153941922E0,4.228000641E0,-2.714726925E-1,-4.818428040E0,6.416146477E0
4.162150614E0,3.339593887E0,1.034202576E-1,-4.985812187E0,6.001825243E0
4.170383191E0,3.696312428E0,-3.579671383E-1,-4.146840572E0,5.566610528E0
4.178592153E0,3.504258633E0,-5.255322456E-1,-4.242963791E0,5.527997326E0
4.186801653E0,3.354094028E0,-1.106697202E0,-4.055793285E0,5.378120919E0
4.195050845E0,3.177650928E0,-1.077300191E0,-3.122298717E0,4.583316529E0
4.203267883E0,2.903621674E0,-7.667267323E-1,-2.554187298E0,3.942430907E0
4.211492614E0,2.606836319E0,-1.071460128E0,-2.859535217E0,4.015042224E0
4.219722114E0,2.493223190E0,-1.143448710E0,-2.781069756E0,3.906147183E0
4.227931460E0,2.262292385E0,-8.794468641E-1,-2.163802624E0,3.251681937E0
4.236168268E0,2.271699905E0,-7.571654320E-1,-2.545410633E0,3.494715331E0
4.244377960E0,1.777044296E0,-3.181753159E-1,-2.678839207E0,3.230371721E0
4.252612422E0,1.905789852E0,-4.742040634E-1,-1.981626034E0,2.789936593E0
4.260822229E0,1.453318119E0,-3.409652710E-1,-1.674127102E0,2.243009680E0
4.269031768E0,1.166561127E0,-3.184225559E-1,-1.454818249E0,1.891759478E0
4.277250037E0,9.279966354E-1,-3.266630173E-1,-1.251791954E0,1.592127375E0
4.285466229E0,6.459970474E-1,-4.380085468E-1,-9.436845779E-1,1.224624128E0
4.293698152E0,4.649391174E-1,-4.172275066E-1,-8.155527115E-1,1.027313682E0
4.301927268E0,5.351395607E-1,-7.494482994E-1,-4.262485504E-1,1.014758557E0
4.310169268E0,2.232770920E-1,-6.123158932E-1,-3.755764961E-1,7.522241137E-1
4.318381075E0,-6.863155365E-1,-3.675239086E-1,4.793500900E-2,7.800003873E-1
4.326589498E0,-8.698539734E-1,-1.245701313E-1,3.198637962E-1,9.351344827E-1
4.334833344E0,-1.833041430E0,1.585541487E0,8.034973145E-1,2.553348903E0
4.343041575E0,-6.471757889E-1,-4.569349289E-1,4.614882469E-1,9.168410075E-1
4.351250921E0,-6.877498627E-1,-3.448860645E-1,5.859708786E-2,7.716086377E-1
4.359478037E0,-1.222400188E0,-4.009177685E-1,1.451902390E-1,1.294634112E0
4.367694075E0,-1.500461578E0,-3.760907650E-1,5.724706650E-1,1.649409553E0
4.375936037E0,-1.717060089E0,-3.746578693E-1,9.356722832E-1,1.991016446E0
4.384166306E0,-1.405054092E0,-5.769670010E-1,9.940738678E-1,1.815282561E0
4.392375844E0,-1.050709724E0,-5.121686459E-1,8.045778275E-1,1.419032462E0
4.400596998E0,-1.069938660E0,-3.666639328E-2,6.165499687E-1,1.235413706E0
4.408807690E0,-8.323884010E-1,-6.153361797E-1,4.521837234E-1,1.129592486E0
4.417058190E0,-8.966202736E-1,-7.663965225E-1,7.349476814E-1,1.389762440E0
4.425267459E0,-1.067259312E0,-7.959222794E-1,1.371163368E0,1.911183847E0
4.433476190E0,-1.861928463E0,-2.400398254E-1,1.740785599E0,2.560220932E0
4.441719690E0,-1.732551098E0,2.638561726E-1,1.397733212E0,2.241653746E0
4.449935152E0,-7.728857994E-1,-9.373283386E-2,8.739151955E-1,1.170412778E0
4.458161229E0,-1.132616997E-1,-6.111531258E-1,3.341903687E-1,7.057050079E-1
4.466391959E0,-2.959675789E-1,-6.665606499E-1,2.517700195E-3,7.293190293E-1
4.474600805E0,-4.304099083E-1,-5.556163788E-1,3.882093430E-1,8.029126624E-1
4.482817459E0,-1.292511463E0,1.398329735E-1,7.777996063E-1,1.514962498E0
4.491026728E0,3.855741501E0,-4.068545341E0,-2.478912354E0,6.129013801E0
4.499268498E0,-2.690959454E0,2.669052601E0,-6.845169067E-1,3.851450112E0
4.507479728E0,1.136259556E0,7.890653610E-1,-1.145112991E0,1.795826741E0
4.515688228E0,4.580926895E-1,6.955246925E-1,-1.477620125E0,1.696161768E0
4.523938651E0,-1.891327858E0,1.085011959E0,-9.215307236E-1,2.367190506E0
4.532157036E0,-1.810793877E0,6.013956070E-1,-1.274579048E0,2.294602992E0
4.540390690E0,-9.582614899E-1,-3.576326370E-1,-1.680847645E0,1.967591165E0
4.548620382E0,-4.768314362E-1,-6.390945911E-1,-9.192266464E-1,1.216876223E0
4.556847651E0,4.100370407E-2,-3.930544853E-1,4.618649483E-1,6.078588345E-1
4.565057382E0,4.600558281E-1,-5.511283875E-3,1.573345900E0,1.639237341E0
4.573264959E0,1.166939259E0,3.402829170E-1,1.526192188E0,1.951102840E0
4.581485959E0,1.439102650E0,2.642536163E-2,5.252170563E-2,1.440303185E0
4.589693613E0,1.331595898E0,-2.517719269E-1,-8.523368835E-1,1.600941879E0
4.597900613E0,9.522552490E-1,-2.444076538E-2,-1.322472095E0,1.629822031E0
4.606116382E0,8.914165497E-1,9.261751175E-2,-8.622827530E-1,1.243677215E0
4.614331728E0,8.936619759E-1,-3.703975677E-2,-1.700682640E-1,9.104542191E-1
4.622565343E0,9.177494049E-1,2.845821381E-1,5.451941490E-1,1.104756817E0
4.630791305E0,7.849588394E-1,1.099634171E-2,1.174633503E0,1.412814625E0
4.638998112E0,4.812951088E-1,5.566692352E-2,1.586035252E0,1.658388256E0
4.647209305E0,2.456746101E-1,2.339406013E-1,2.152368069E0,2.178938393E0
4.655417189E0,5.619559288E-1,1.018476486E-1,2.550817966E0,2.613970105E0
4.663657997E0,5.845365524E-1,2.407813072E-1,2.661771536E0,2.735815478E0
4.671866112E0,5.135974884E-1,2.781333923E-1,2.243031502E0,2.317828916E0
4.680074766E0,2.828645706E-2,4.100356102E-1,1.690259218E0,1.739513021E0
4.688295497E0,-1.152420044E-2,4.383177757E-1,1.417278767E0,1.483554644E0
4.696512112E0,1.615433693E-1,3.827614784E-1,1.175336838E0,1.246603101E0
4.704746420E0,7.217340469E-1,2.037534714E-1,1.414873600E-1,7.631737578E-1
4.712975997E0,1.187060356E0,-5.760860443E-2,-4.266996384E-1,1.262736561E0
4.721185266E0,1.804857731E0,-3.969860077E-2,-5.690350533E-1,1.892851896E0
4.729396843E0,2.110560894E0,-1.203107834E-1,-8.318901062E-1,2.271779725E0
4.737606535E0,2.075792789E0,-1.646494865E-1,-1.082907915E0,2.347065127E0
4.745847074E0,1.638639450E0,-2.334332466E-1,-1.059399128E0,1.965186210E0
4.754055227E0,7.274408340E-1,-2.390899658E-1,-1.006965160E0,1.265034787E0
4.762263920E0,-3.279085159E-1,-3.335151672E-1,-6.186239719E-1,7.755333521E-1
4.770509227E0,-9.488601685E-1,-3.475480080E-1,4.146211147E-1,1.092261830E0
4.778725650E0,-7.079601288E-1,-1.251416206E-1,1.524536610E0,1.685550309E0
4.786956343E0,-7.544755936E-2,2.188344002E-1,1.835538507E0,1.850076333E0
4.795186766E0,4.687871933E-1,2.659010887E-1,3.607387543E-1,6.485347103E-1
4.803428535E0,6.671195030E-1,2.193055153E-1,-9.024522305E-1,1.143487371E0
4.811667266E0,3.829798698E-1,-1.276969910E-3,-1.819161892E0,1.859038784E0
4.819877804E0,-3.890156746E-1,8.873939514E-4,-2.037802935E0,2.074602319E0
4.828124419E0,-6.803169250E-1,9.952068329E-3,-1.147745848E0,1.334260354E0
4.836334996E0,-1.025520325E0,-1.184806824E-1,-7.227683067E-2,1.034868856E0
4.844545419E0,-1.394853115E0,-3.271951675E-1,6.621477604E-1,1.578325552E0
4.852795842E0,-9.881525040E-1,-4.065575600E-1,9.202678204E-1,1.410186967E0
4.861013573E0,-5.150113106E-1,-2.852616310E-1,1.949906349E-1,6.201872265E-1
4.869247765E0,-7.504444122E-1,-2.963247299E-1,1.517984867E-1,8.209859572E-1
4.877477612E0,-9.418611526E-1,-2.731118202E-1,5.393552780E-1,1.119194627E0
4.885687265E0,-3.884301186E-1,3.222227097E-2,4.942059517E-1,6.294090518E-1
4.893901611E0,-1.277661324E-1,8.940839767E-2,-2.370660305E-1,2.837575532E-1
4.902112804E0,3.245682716E-1,2.422327995E-1,-5.544471741E-1,6.866097589E-1
4.910355650E0,1.018169880E0,3.043370247E-1,-1.423257113E0,1.776218381E0
4.918567111E0,1.170176983E0,3.669991493E-1,-1.409578085E0,1.868398492E0
4.926777265E0,8.889980316E-1,4.097442627E-1,-1.310285330E0,1.635559692E0
4.934999996E0,5.629634857E-1,3.060922623E-1,-1.039699554E0,1.221308938E0
4.943216727E0,5.443725586E-1,4.815864563E-2,-3.059756756E-1,6.263240788E-1
4.951455919E0,2.500009537E-1,-1.782469749E-1,5.112054348E-1,5.963249596E-1
4.959685957E0,-2.101278305E-1,-2.654271126E-1,1.014285564E0,1.069289700E0
4.967894765E0,-4.591875076E-1,-3.080916405E-1,1.350346804E0,1.459181317E0
4.976106111E0,-7.494487762E-1,-1.476135254E-1,1.836695671E0,1.989199389E0
4.984315150E0,-2.846794128E-1,3.282165527E-2,1.934509873E0,1.955619615E0
4.992556957E0,9.354734421E-1,4.948773384E-1,5.669543743E-1,1.200604599E0
5.000766534E0,1.860508919E0,8.965306282E-1,-1.560348988E0,2.588426079E0
5.008976611E0,1.907462120E0,1.148099422E0,-2.357240677E0,3.242395354E0
5.017227765E0,1.699537754E0,1.022607327E0,-1.984002709E0,2.805427075E0
5.025442803E0,1.810667992E0,6.131792068E-2,-1.217281580E0,2.182671049E0
5.033674380E0,1.606904030E0,-7.868146896E-1,-7.737905979E-1,1.949351124E0
5.041902803E0,1.699670792E0,-7.921772003E-1,1.536403894E-1,1.881496980E0
5.050136611E0,1.661384583E0,-5.380816460E-1,-3.307780027E-1,1.777398288E0
5.058347765E0,1.309068203E0,-3.039536476E-1,-8.049250841E-1,1.566509423E0
5.066558072E0,1.129935265E0,-1.490287781E-1,-1.282927275E0,1.716061092E0
5.074800880E0,1.483736992E0,-9.733104706E-2,-1.611184001E0,2.192455856E0
5.083011688E0,1.741281509E0,2.982354164E-1,-1.976372004E0,2.650858720E0
5.091221111E0,2.170403957E0,5.193338394E-1,-1.670738816E0,2.787782123E0
5.099466034E0,2.349758625E0,4.822888374E-1,-9.195522666E-1,2.568957861E0
5.107682803E0,2.068360329E0,-1.380896568E-1,2.362072468E-3,2.072966180E0
5.115919918E0,1.321307659E0,-7.331347466E-1,8.250139952E-1,1.721623820E0
5.124150534E0,5.660872459E-1,-1.156798840E0,4.910591841E-1,1.378324145E0
5.132361226E0,2.835512161E-2,-1.194257259E0,4.291245341E-2,1.195364335E0
5.140602457E0,-2.428665161E-1,-1.421433926E0,7.478877902E-2,1.443970883E0
5.148811764E0,-3.346877098E-1,-1.196067810E0,2.658672333E-1,1.270149383E0
5.157052841E0,-2.340855598E-1,-1.316823006E0,6.152577400E-1,1.472195967E0
5.165261803E0,-2.439117432E-2,-1.382057667E0,1.122566581E0,1.780683591E0
5.173470918E0,1.332650185E-1,-1.623628616E0,1.131095171E0,1.983256346E0
5.181694380E0,-8.906841278E-3,-1.741416454E0,9.101927876E-1,1.964958399E0
5.189910918E0,-7.337093353E-3,-1.819993973E0,9.459706545E-1,2.051168538E0
5.198145303E0,-6.149530411E-2,-1.823347569E0,9.199162722E-1,2.043189657E0
5.206355341E0,-3.961372375E-2,-1.730417252E0,1.098347425E0,2.049946384E0
5.214564110E0,-1.689610481E-1,-1.359812737E0,1.438881636E0,1.986962223E0
5.222773572E0,-1.445903778E-1,-9.301886559E-1,1.770901203E0,2.005554383E0
5.230981879E0,2.210903168E-2,-5.384273529E-1,1.484853268E0,1.579614526E0
5.239229610E0,1.491065025E-1,-9.408187866E-2,5.724135041E-1,5.989502222E-1
5.247435226E0,7.383012772E-2,1.202621460E-1,-4.070709646E-1,4.308371406E-1
5.255643841E0,3.470673561E-1,2.435803413E-1,-5.981730223E-1,7.332108134E-1
5.263862149E0,7.153158188E-1,4.414868355E-1,-3.145078421E-1,8.974979271E-1
5.272077418E0,1.154516220E0,6.188492775E-1,-3.980779648E-2,1.310521572E0
5.280309687E0,1.400851727E0,5.367388725E-1,-3.684818745E-2,1.500610531E0
5.288537802E0,1.755081654E0,4.741053581E-1,3.241724372E-1,1.846665988E0
5.296782841E0,1.975967407E0,2.123928070E-1,7.333999872E-1,2.118356306E0
5.304889956E0,2.047544479E0,-3.436326981E-2,9.421667457E-1,2.254173331E0
5.313061148E0,2.015263557E0,-3.004550934E-3,1.292464018E0,2.394109327E0
5.321301610E0,2.065634727E0,-1.902489662E-1,1.950137615E0,2.847117527E0
5.329509418E0,1.556121349E0,3.434133530E-2,1.974210620E0,2.514000906E0
5.337717571E0,7.672801018E-1,4.129915237E-1,1.540559769E0,1.769916708E0
5.345941148E0,-7.566356659E-2,8.896808624E-1,5.645140409E-1,1.056377354E0
5.354155764E0,-7.953834534E-1,1.265895367E0,-1.353087127E-1,1.501144352E0
5.362370071E0,-1.575260162E0,1.707695484E0,-1.359949112E-1,2.327265146E0
5.370597456E0,-1.802085400E0,2.017858982E0,-1.473653316E-2,2.705454458E0
5.378805187E0,-2.283210993E0,2.256996632E0,1.143387854E-1,3.212500520E0
5.387017687E0,-2.409165382E0,2.351727962E0,5.832028985E-1,3.416844724E0
5.395225110E0,-2.371839046E0,2.158214569E0,8.366707563E-1,3.314140695E0
5.403465186E0,-2.070119143E0,1.890350342E0,2.646763921E-1,2.815825149E0
5.411672917E0,-1.788622618E0,1.665950775E0,3.711748123E-2,2.444573697E0
5.419880225E0,-1.394835949E0,1.431214333E0,9.888398647E-2,2.000929742E0
5.428103302E0,-9.839382172E-1,1.298138618E0,4.731449485E-1,1.696220631E0
5.436319071E0,-5.324416161E-1,1.143181801E0,7.313933969E-1,1.457839156E0
5.444557956E0,-2.611370087E-1,1.093556404E0,6.495165229E-1,1.298433618E0
5.452784840E0,-3.038263321E-2,1.073182106E0,5.380737185E-1,1.200902271E0
5.460993379E0,4.204797745E-2,1.077741623E0,1.288128495E-1,1.086226398E0
5.469214109E0,8.728265762E-2,1.088685989E0,-1.174741387E-1,1.098478775E0
5.477425071E0,2.465438843E-2,1.083193779E0,1.036809087E-1,1.088423784E0
5.485676609E0,1.663303375E-2,9.563398361E-1,8.372473717E-2,9.601418497E-1
5.493886148E0,-1.894378662E-2,7.345104218E-1,1.122540236E-1,7.432801575E-1
5.502094301E0,-5.810689926E-2,5.984945297E-1,4.120290279E-2,6.027186682E-1
5.510325340E0,6.083965302E-2,5.343503952E-1,1.919273138E-1,5.710235564E-1
5.518543648E0,2.726550102E-1,4.702453613E-1,2.767826915E-1,6.099836988E-1
5.526786071E0,4.888119698E-1,3.435287476E-1,7.242280245E-2,6.018257260E-1
5.535015494E0,6.614680290E-1,2.629079819E-1,1.660192013E-2,7.119945113E-1
5.543254763E0,8.364267349E-1,8.347511292E-2,1.024355292E-1,8.468003395E-1
5.551472724E0,9.667353630E-1,-1.115140915E-1,1.182197332E-1,9.803002397E-1
5.559678494E0,9.813988209E-1,-4.612474442E-1,-1.561760902E-1,1.095574654E0
5.567926455E0,1.008510828E0,-8.810224533E-1,-2.062171400E-1,1.354924412E0
5.576134609E0,9.206025600E-1,-1.376348019E0,-2.289088964E-1,1.671598703E0
5.584343070E0,8.043756485E-1,-1.961575985E0,-1.248480082E-1,2.123767302E0
5.592566070E0,6.974456310E-1,-2.489768505E0,1.207387745E-1,2.588427219E0
5.600781916E0,5.838327408E-1,-2.820765495E0,4.913542271E-1,2.922158042E0
5.609007147E0,3.898587227E-1,-2.899442673E0,8.331525326E-1,3.041858113E0
5.617234455E0,-3.242492676E-4,-2.948726177E0,1.108537197E0,3.150212833E0
5.625442493E0,-3.222448826E-1,-2.994142532E0,1.158390284E0,3.226546035E0
5.633682186E0,-7.290089130E-1,-2.932447433E0,1.005448699E0,3.184592444E0
5.641889724E0,-1.015346646E0,-2.888288975E0,9.169112444E-1,3.195914305E0
5.650123109E0,-1.173337698E0,-2.910367966E0,7.881386280E-1,3.235448276E0
5.658330993E0,-1.371243596E0,-2.843941212E0,-1.391140819E-1,3.160326461E0
5.666539070E0,-1.382316113E0,-2.579964161E0,-1.258068681E0,3.185867184E0
5.674788224E0,-1.634337664E0,-2.160714149E0,-1.894501925E0,3.305886080E0
5.683004378E0,-2.003931046E0,-1.748310566E0,-1.707330823E0,3.160270243E0
5.691238685E0,-2.603890896E0,-1.044130325E0,-1.181420445E0,3.044045040E0
5.699467724E0,-2.842700720E0,-5.988168716E-1,-8.283979893E-1,3.020889316E0
5.707676685E0,-2.554957390E0,-2.632999420E-1,-4.228321612E-1,2.603059961E0
5.715886839E0,-2.173239231E0,-1.183319092E-2,-3.413659334E-1,2.199918062E0
5.724096108E0,-2.146178722E0,3.102903366E-1,-3.055687547E-1,2.189916771E0
5.732336185E0,-2.237515926E0,6.404228210E-1,4.008744359E-1,2.361634863E0
5.740545416E0,-2.392776012E0,1.154992104E0,1.006064773E0,2.841047365E0
5.748755224E0,-1.539595723E0,2.214854240E0,1.926898003E0,3.314946487E0
5.757002108E0,-1.117530107E0,2.602785110E0,1.873002291E0,3.395806451E0
5.765219262E0,-1.170856714E0,1.800772667E0,6.514866352E-1,2.244576236E0
5.773454416E0,-1.917390347E0,1.095130920E0,-3.747543991E-1,2.239673711E0
5.781685300E0,-2.825042963E0,8.142633438E-1,-1.566228271E-1,2.944218614E0
5.789928339E0,-2.604739428E0,3.666086197E-1,1.148167729E0,2.870079877E0
5.798163762E0,-1.029217124E0,-3.230266571E-1,2.387712717E0,2.620077504E0
5.806374800E0,-1.049085259E-1,-8.434524536E-1,2.597831011E0,2.733339313E0
5.814609300E0,3.768292665E-1,-1.280174255E0,1.688670158E0,2.152313482E0
5.822820108E0,4.515827894E-1,-1.594305038E0,5.739761591E-1,1.753620313E0
5.831031877E0,2.596132159E-1,-1.892304897E0,-1.867039502E-2,1.910121836E0
5.839255992E0,-1.110287681E-1,-2.173543930E0,-5.289400741E-2,2.177020528E0
5.847472992E0,-6.646257043E-1,-2.282273769E0,4.538605511E-1,2.420018654E0
5.855707185E0,-1.321486473E0,-2.225977421E0,1.223506093E0,2.863261975E0
5.863936954E0,-1.821887136E0,-2.083986759E0,2.123271465E0,3.488632291E0
5.872145146E0,-1.910972238E0,-1.828024387E0,2.382096052E0,3.559195085E0
5.880385685E0,-1.761211395E0,-1.599882126E0,1.908313036E0,3.050106070E0
5.888594838E0,-1.476990581E0,-1.381169319E0,1.386912584E0,2.452071855E0
5.896837954E0,-1.278474092E0,-1.139752388E0,1.116916418E0,2.044757637E0
5.905046877E0,-1.165178061E0,-8.956241608E-1,1.091393590E0,1.830552517E0
5.913255415E0,-1.180225372E0,-6.085119247E-1,1.083236694E0,1.713657033E0
5.921471877E0,-1.068915486E0,-3.858766556E-1,9.586516023E-1,1.486773017E0
5.929685915E0,-8.748515844E-1,-1.411972046E-1,4.434417486E-1,9.909301337E-1
5.937918531E0,-7.479612827E-1,1.091976166E-1,-3.585264683E-1,8.366070932E-1
5.946147261E0,-4.341723323E-1,3.006076813E-1,-1.167443037E0,1.281325032E0
5.954355031E0,-1.736325175E-1,4.525270462E-1,-1.602484465E0,1.674182021E0
5.962564184E0,-6.398117542E-2,6.062936783E-1,-1.567566395E0,1.681948280E0
5.970772223E0,-2.245858908E-1,8.080301285E-1,-9.521712661E-1,1.268850516E0
5.979014915E0,-3.465361595E-1,9.340944290E-1,-1.525880992E-1,1.007920056E0
5.987224377E0,-5.490261912E-1,1.071111679E0,4.683557749E-1,1.291536728E0
5.995433492E0,-1.029791355E0,1.271929741E0,1.245074868E0,2.056328507E0
6.003652953E0,-1.939131021E0,1.457399368E0,3.216250181E0,4.028462146E0
6.011867569E0,-2.798383951E0,1.541067123E0,4.874287605E0,5.827908740E0
6.020092723E0,-3.176869392E0,1.237446785E0,4.709585190E0,5.814117847E0
6.028321415E0,-3.030166626E0,6.538305283E-1,3.396808147E0,4.598663907E0
6.036565415E0,-2.573111296E0,1.421604156E-1,1.678286672E0,3.075346725E0
6.044783684E0,-2.074053764E0,-1.010475159E-1,3.688591719E-1,2.109020319E0
6.052993069E0,-1.814909935E0,-2.289009094E-1,-1.591952145E-1,1.836201736E0
6.061235376E0,-1.606605768E0,-4.282159805E-1,-3.311413527E-1,1.695348228E0
6.069446492E0,-1.437381744E0,-6.942386627E-1,-3.655580282E-1,1.637579394E0
6.077656876E0,-1.356508493E0,-8.786191940E-1,-4.105495811E-1,1.667524494E0
6.085874068E0,-1.426885843E0,-9.742937088E-1,-2.647725940E-1,1.747957656E0
6.094089530E0,-1.778041959E0,-8.712186813E-1,1.867429912E-1,1.988800679E0
6.102324684E0,-2.218797207E0,-5.479536057E-1,8.382783532E-1,2.434342785E0
6.110552299E0,-2.673089981E0,-1.025905609E-1,1.634552717E0,3.134915861E0
6.118761799E0,-3.079697609E0,2.854089737E-1,2.113547325E0,3.746075005E0
6.126975761E0,-3.169652700E0,5.108823776E-1,2.078967333E0,3.824892706E0
6.135185261E0,-2.528355122E0,3.775177002E-1,1.636635303E0,3.035403491E0
6.143427145E0,-1.673926950E0,1.364088058E-1,1.123407483E0,2.020565061E0
6.151635761E0,-9.008884430E-1,-1.432580948E-1,4.889174402E-1,1.034970112E0
6.159844261E0,-5.983852744E-1,-2.631301880E-1,-6.066656113E-2,6.564928515E-1
6.168066914E0,-6.512517929E-1,-2.425022125E-1,-4.514659047E-1,8.287084433E-1
6.176283645E0,-7.949362993E-1,-1.823568344E-1,-5.441558361E-1,9.804505643E-1
6.184515107E0,-7.438871861E-1,-1.977033615E-1,-3.147169948E-1,8.315657229E-1
6.192746030E0,-6.823056340E-1,-2.428236008E-1,7.890886068E-2,7.285127917E-1
6.200955606E0,-3.736763597E-1,-3.340311050E-1,5.789078474E-1,7.657317394E-1
6.209168837E0,-1.548278928E-1,-2.816467285E-1,9.106972218E-1,9.657463361E-1
6.217379530E0,-1.813016236E-1,-1.810007095E-1,9.182019830E-1,9.532714289E-1
6.225620799E0,-2.642126381E-1,-1.420078278E-1,6.912741661E-1,7.535479507E-1
6.233829453E0,-2.996637523E-1,-1.025505066E-1,4.762811065E-1,5.719778521E-1
6.242038029E0,-2.361538410E-1,-1.560811996E-1,3.264137506E-1,4.320600816E-1
6.250255952E0,-2.288318872E-1,-2.188386917E-1,2.798377573E-1,4.225678360E-1
6.258473183E0,-2.012336254E-1,-2.334232330E-1,2.932397127E-1,4.254067546E-1
6.266715299E0,-1.102532148E-1,-2.237319946E-1,2.962169051E-1,3.872418258E-1
6.274944299E0,-3.893047571E-2,-1.203155518E-1,3.008408546E-1,3.263382199E-1
6.283184914E0,8.079409599E-4,9.831905365E-2,2.727643251E-1,2.899442466E-1
6.291404683E0,3.494560719E-3,2.765274048E-1,2.266811132E-1,3.575806827E-1
6.299614491E0,-4.747152328E-3,4.429817200E-1,1.472227275E-1,4.668295954E-1
6.307866568E0,-2.237462997E-2,6.095056534E-1,1.282432079E-1,6.232528267E-1
6.316076606E0,-1.049739718E-1,7.592792511E-1,1.212215722E-1,7.760278252E-1
6.324287375E0,-1.695420146E-1,7.604856491E-1,1.844161451E-1,8.006823539E-1
6.332517644E0,-1.908729672E-1,6.776704788E-1,3.005895615E-1,7.655219474E-1
6.340735106E0,-1.766325831E-1,5.371475220E-1,4.457518458E-1,7.200147484E-1
6.348976375E0,-1.214604378E-1,3.293294907E-1,5.496945381E-1,6.522075104E-1
6.357205106E0,-1.124972105E-2,5.186080933E-2,6.823884845E-1,6.844487881E-1
6.365412683E0,4.056143761E-2,-1.970357895E-1,7.474272847E-1,7.740257609E-1
6.373631760E0,3.753447533E-2,-4.483947754E-1,7.235284448E-1,8.520329347E-1
6.381840606E0,2.984219790E-2,-6.566581726E-1,5.515519977E-1,8.580793195E-1
6.390091221E0,-5.873012543E-2,-8.553943634E-1,2.088525891E-1,8.824784125E-1
6.398300413E0,-1.283794343E-1,-9.752330780E-1,-4.409283400E-2,9.846344568E-1
6.406509913E0,-4.961010814E-2,-1.171824455E0,-1.290064454E-1,1.179947617E0
6.414736452E0,1.126230359E-1,-1.382925034E0,-6.278842688E-2,1.388923318E0
6.422951798E0,1.703384519E-1,-1.558119774E0,4.067945480E-2,1.567930877E0
6.431191990E0,5.600799620E-2,-1.594298363E0,1.393494606E-1,1.601356437E0
6.439418875E0,-3.553396463E-2,-1.510512352E0,1.655728817E-1,1.519975200E0
6.447628182E0,7.699994743E-2,-1.292348862E0,2.204218507E-1,1.313270865E0
6.455847336E0,1.256426871E-1,-1.066639900E0,2.706482410E-1,1.107590733E0
6.464055759E0,1.993067712E-1,-7.231740952E-1,1.611346006E-1,7.672472355E-1
6.472303221E0,1.000073105E-1,-4.295520782E-1,1.378877759E-1,4.620925111E-1
6.480511182E0,5.659662932E-2,-2.432270050E-1,1.338188648E-1,2.833196834E-1
6.488718836E0,2.785802260E-2,-4.689884186E-2,2.033209801E-1,2.105112627E-1
6.496946721E0,-1.249488592E-1,-8.111953735E-3,3.872225285E-1,4.069635214E-1
6.505162567E0,-3.474918306E-1,-1.898002625E-2,6.074224114E-1,7.000519978E-1
6.513401990E0,-6.005418897E-1,-5.556201935E-2,9.208424091E-1,1.100767206E0
6.521631567E0,-7.618360519E-1,-9.117889404E-2,1.059211612E0,1.307913223E0
6.529873298E0,-8.995636702E-1,-2.910623550E-1,1.124375582E0,1.469065193E0
6.538092336E0,-1.092052579E0,-5.354099274E-1,1.047091246E0,1.604880900E0
6.546301797E0,-1.456389189E0,-6.568784714E-1,9.092115164E-1,1.838266677E0
6.554551682E0,-1.729738593E0,-7.587432861E-1,8.452548981E-1,2.069333907E0
6.562761105E0,-2.003722429E0,-7.906961441E-1,9.369205236E-1,2.349026188E0
6.570970259E0,-2.261704445E0,-7.914066315E-1,1.132448912E0,2.650296585E0
6.579195528E0,-2.533804655E0,-7.034778595E-1,1.427654386E0,2.992197215E0
6.587411874E0,-2.792923450E0,-4.550991058E-1,1.660542250E0,3.280996367E0
6.595652951E0,-3.004176378E0,-2.523708344E-1,1.696870685E0,3.459499511E0
6.603881066E0,-3.148014545E0,-2.529544830E-1,1.394841671E0,3.452472279E0
6.612089951E0,-3.149282455E0,-3.516330719E-1,9.542155266E-1,3.309403734E0
6.620311990E0,-2.925382376E0,-4.957180023E-1,6.297104359E-1,3.033172203E0
6.628520566E0,-2.525534630E0,-7.280702591E-1,5.455397367E-1,2.684404044E0
6.636769220E0,-1.949506760E0,-1.065361977E0,6.890867949E-1,2.326029526E0
6.644978682E0,-1.517990947E0,-1.372971535E0,9.387696385E-1,2.251807226E0
6.653186566E0,-1.269394875E0,-1.713029861E0,1.322306633E0,2.508850232E0
6.661413989E0,-1.116559267E0,-1.848606110E0,1.625022411E0,2.702729543E0
6.669627182E0,-1.051426649E0,-1.733781815E0,1.633920908E0,2.604072755E0
6.677864989E0,-8.813383579E-1,-1.622543335E0,1.264354467E0,2.237855311E0
6.686092489E0,-6.813701391E-1,-1.500341415E0,7.247537374E-1,1.800154885E0
6.694299989E0,-5.057097673E-1,-1.489678383E0,3.568098545E-1,1.613132767E0
6.702512335E0,-3.791239858E-1,-1.571763515E0,1.390914917E-1,1.622812986E0
6.710721258E0,-3.875584006E-1,-1.712909698E0,5.435132980E-2,1.757047300E0
6.718963143E0,-1.906505823E-1,-2.001668930E0,1.493601799E-1,2.016267496E0
6.727173028E0,-1.899956465E-1,-2.207436085E0,3.901561499E-1,2.249687586E0
6.735382066E0,-2.129427195E-1,-2.454346180E0,6.174070835E-1,2.539754177E0
6.743626720E0,-1.481568813E-2,-2.583306313E0,8.119543791E-1,2.707944040E0
6.751843566E0,1.262625456E-1,-2.744046211E0,8.138072491E-1,2.864963190E0
6.760070566E0,3.096894026E-1,-2.652936935E0,6.469166279E-1,2.748178130E0
6.768298912E0,6.644982100E-1,-2.627828121E0,3.579185009E-1,2.734070986E0
6.776531220E0,8.913495541E-1,-2.458456516E0,6.334519386E-2,2.615822066E0
6.784769412E0,1.129217982E0,-2.372457027E0,-8.230447769E-2,2.628775309E0
6.792978181E0,1.487018824E0,-1.904848099E0,-2.127962112E-1,2.425892308E0
6.801227758E0,1.918390512E0,-1.077804565E0,-2.458534241E-1,2.214120310E0
6.809436489E0,2.756523132E0,-7.857799530E-2,-5.063195229E-1,2.803739242E0
6.817645335E0,3.567407846E0,1.003433228E0,-1.182110310E-1,3.707728527E0
6.825896527E0,4.128295898E0,3.438996315E0,1.002847433E0,5.465823420E0
6.834113027E0,3.154387474E0,8.468491554E0,6.405438423E0,1.107678432E1
6.842324873E0,4.633481979E0,1.112952137E1,1.696763039E0,1.217433390E1
6.850552719E0,9.472681046E0,8.715131760E0,-2.090087414E0,1.304046292E1
6.858760450E0,6.202676773E0,1.191239357E0,-1.794452667E0,6.565996553E0
6.867001758E0,2.004057646E0,-5.732151031E0,-2.293096542E0,6.490923990E0
6.875209027E0,3.275842667E-1,-9.070103645E0,-3.467178822E0,9.715730573E0
6.883445642E0,-2.130986452E0,-1.051991081E1,-2.195830345E0,1.095587959E1
6.891654296E0,-7.300333977E0,-1.121232224E1,5.144018173E0,1.433429346E1
6.899862412E0,-9.112098694E0,-9.805460930E0,8.257089615E0,1.572758518E1
6.908106142E0,-2.486932993E0,-5.371704102E0,3.003855228E0,6.638010764E0
6.916322719E0,1.790329218E0,-4.269706726E0,-7.483631611E0,8.800023655E0
6.924549296E0,3.690417051E0,-4.952144623E0,-9.871311188E0,1.164412723E1
6.932776988E0,2.731791019E0,-3.751609802E0,-8.602670670E0,9.774620245E0
6.940984988E0,3.208537102E-1,-2.209637642E0,-4.508913517E0,5.031475600E0
6.949222604E0,-7.129310369E-1,-2.043624401E0,-3.583492279E0,4.186417116E0
6.957431027E0,3.412135839E0,8.347364426E0,-3.491427994E1,3.606006250E1
6.965663719E0,-2.433200359E0,-2.606027365E0,4.961645126E0,6.109808915E0
6.973871142E0,-2.441105127E0,-1.483290672E0,1.666839123E0,3.307188855E0
6.982077680E0,-7.945899963E-1,3.997120857E-1,-8.378090858E-1,1.221911240E0
6.990327642E0,-1.673893929E-1,2.028245926E-1,-2.126866817E0,2.143063108E0
6.998542565E0,5.384430885E-1,9.813051224E-1,-2.766389847E0,2.984257611E0
7.006768680E0,1.588241577E0,1.350561142E0,-3.189078331E0,3.810084947E0
7.014997642E0,2.024819851E0,1.777163029E0,-3.191504955E0,4.176590444E0
7.023230950E0,2.546459198E0,2.196764946E0,-2.805290699E0,4.379484739E0
7.031468719E0,1.536011219E0,1.791865826E0,-2.190821171E0,3.220219093E0
7.039678373E0,1.209911346E0,1.433414459E0,-1.679016113E0,2.517470474E0
7.047912488E0,1.440625191E0,9.935708046E-1,-1.199949741E0,2.121900861E0
7.056118949E0,1.925144196E0,1.156985283E0,-9.164958000E-1,2.425852359E0
7.064324334E0,1.957182884E0,6.072311401E-1,-8.743572235E-1,2.227957597E0
7.072566603E0,2.593759537E0,2.484912872E-1,-7.771048546E-1,2.719049174E0
7.080781257E0,3.258149624E0,-1.138749123E-1,-7.032947540E-1,3.335135676E0
7.089005372E0,3.078101158E0,7.840800285E-1,-6.758217812E-1,3.247494929E0
7.097230372E0,3.100523472E0,3.012242317E-1,-8.302092552E-1,3.223853167E0
7.105438872E0,3.602731228E0,-1.387329102E-1,-7.867007256E-1,3.690232669E0
7.113677065E0,4.172545910E0,-7.275385857E-1,-8.708219528E-1,4.324093273E0
7.121885641E0,3.731221199E0,-5.083985329E-1,-8.211812973E-1,3.854195043E0
7.130120411E0,3.326426029E0,-4.005217552E-1,-1.014379978E0,3.500642019E0
7.138327834E0,2.805468082E0,-6.383614540E-1,-1.270760536E0,3.145312202E0
7.146535218E0,2.678331375E0,-1.357893944E0,-1.460357189E0,3.339158283E0
7.154784257E0,2.365505219E0,-1.802485228E0,-1.489318371E0,3.326054291E0
7.162998487E0,1.952286720E0,-1.579810619E0,-6.085119247E-1,2.584088194E0
7.171232295E0,1.737258911E0,-1.320920706E0,-1.724153042E0,2.781295336E0
7.179460257E0,1.060213566E0,-3.690381050E-1,-6.559066772E-1,1.300175179E0
7.187668603E0,9.246640205E-1,-1.593699455E-1,-2.813143730E-1,9.795611808E-1
7.195878641E0,7.190647125E-1,-1.985831261E-1,-4.923787117E-1,8.938266692E-1
7.204086872E0,5.231556892E-1,-2.660326958E-1,-5.024199486E-1,7.725872605E-1
7.212330064E0,2.980699539E-1,-3.165383339E-1,2.240509987E-1,4.891227497E-1
7.220538141E0,4.424810410E-2,-5.924811363E-1,8.559212685E-1,1.041917948E0
7.228746218E0,-6.494188309E-2,-7.043004036E-1,6.344580650E-1,9.501544837E-1
7.236967795E0,1.927185059E-2,-6.483268738E-1,2.492437363E-1,6.948536389E-1
7.245181333E0,3.278303146E-2,-6.224842072E-1,4.620075226E-3,6.233639871E-1
7.253419102E0,-2.204895020E-3,-6.689329147E-1,2.085609436E-1,7.006952070E-1
7.261646141E0,-3.978619576E-1,-7.137651443E-1,9.364771843E-1,1.242877442E0
7.269884756E0,-7.866697311E-1,-8.642635345E-1,1.395325661E0,1.820091872E0
7.278103410E0,-1.071310043E0,-9.623994827E-1,1.636965275E0,2.180269085E0
7.286308910E0,-1.140596390E0,-8.776865005E-1,1.893325806E0,2.378229662E0
7.294556718E0,-1.263694286E0,-6.807656288E-1,1.951857805E0,2.422831811E0
7.302763910E0,-1.279867649E0,-4.487352371E-1,1.486486435E0,2.012229220E0
7.310972718E0,-1.044306278E0,-5.650801659E-1,2.776298523E-1,1.219413601E0
7.319202448E0,-9.192509651E-1,-4.987039566E-1,-9.322881699E-2,1.049961707E0
7.327419256E0,-1.278934002E0,-1.038046837E0,-5.301194191E-1,1.730387244E0
7.335652794E0,-1.118968964E0,-2.231237411E0,-2.789231777E0,3.743036980E0
7.343881525E0,-1.047553539E0,-1.700171471E0,-2.364084721E0,3.094648286E0
7.352089910E0,-1.330424309E0,6.640243530E-2,-7.686104774E-1,1.537920736E0
7.360301064E0,-7.211217880E-1,8.727416992E-1,-1.161818981E0,1.622195442E0
7.368507871E0,1.205467224E0,4.258699417E-1,-2.716774464E0,3.002562226E0
7.376738294E0,2.651662827E0,-2.741165161E-1,-4.510065079E0,5.239002064E0
7.384944871E0,2.040416241E0,-8.081994057E-1,-5.129608631E0,5.579369984E0
7.393151717E0,7.875590324E-1,-8.042521477E-1,-3.830156326E0,3.992138303E0
7.401394794E0,4.069662094E-1,-1.080675125E0,-1.743769169E0,2.091461483E0
7.409609140E0,3.382363319E-1,-5.723609924E-1,9.968757629E-2,6.722637390E-1
7.417836025E0,9.371547699E-1,9.518756866E-1,1.586719036E0,2.074127210E0
7.426064871E0,6.782474518E-1,9.488987923E-1,2.028646946E0,2.340050631E0
7.434273833E0,9.031724930E-1,4.414858818E-1,8.896832466E-1,1.342447993E0
7.442502371E0,8.953461647E-1,1.277384758E-1,-1.637785435E0,1.870909673E0
7.450710794E0,1.791356564E0,3.620600700E-1,-3.069818974E0,3.572650887E0
7.458946794E0,2.407306671E0,2.664089203E-1,-3.432356834E0,4.200853789E0
7.467155063E0,2.446434021E0,-2.121148109E-1,-4.220616817E0,4.882994822E0
7.475363679E0,2.338548183E0,-5.658583641E-1,-4.811362743E0,5.379425131E0
7.483610986E0,2.470463753E0,-4.963316917E-1,-4.978481770E0,5.579858155E0
7.491824140E0,1.421924591E0,-3.648242950E-1,-5.249661446E0,5.451046835E0
7.500048678E0,1.461914539E0,-3.623290062E-1,-3.054317951E0,3.405485953E0
7.508276140E0,1.509679317E0,-4.729971886E-1,-2.251974344E0,2.752134886E0
7.516507101E0,1.462162018E0,-4.684042931E-1,-3.278049469E0,3.619796772E0
7.524743794E0,1.904315948E0,-6.940345764E-1,-3.747400284E0,4.260412200E0
7.532950832E0,1.931364059E0,-8.982577324E-1,-3.548351526E0,4.138578577E0
7.541191486E0,1.887734890E0,-7.729802132E-1,-1.209163904E0,2.371311614E0
7.549398832E0,1.478992939E0,-8.460001945E-1,-5.858938694E-1,1.801779140E0
7.557606063E0,1.174842358E0,-6.477560997E-1,-1.257266998E-1,1.347460476E0
7.565821140E0,3.843274117E-1,-7.642583847E-1,-1.393728256E-1,8.667313439E-1
7.574035101E0,-5.687670708E-1,-1.234764099E0,-6.879549026E-1,1.523620789E0
7.582264486E0,-7.501130104E-1,-8.883314133E-1,-5.311882496E-1,1.278265694E0
7.590490563E0,-7.735705376E-1,-1.261002541E0,-7.646093369E-1,1.665282625E0
7.598696986E0,-5.898771286E-1,-1.183325291E0,-5.722935200E-1,1.440740658E0
7.606907793E0,-9.679021835E-1,-9.593043327E-1,-3.957393169E-1,1.419052165E0
7.615115486E0,-7.818145752E-1,-1.252340317E0,-1.318788528E-1,1.482222092E0
7.623355332E0,-8.012695312E-1,-1.111291409E0,1.399662495E-1,1.377168112E0
7.631562986E0,-6.502771378E-1,-1.566408157E0,5.471256971E-1,1.782089055E0
7.639771370E0,-6.321849823E-1,-1.925526142E0,2.217313647E-1,2.038743136E0
7.648019063E0,-5.644240379E-1,-2.200167656E0,1.629253924E-1,2.277247657E0
7.656232370E0,-5.515480042E-1,-2.479387760E0,3.323325813E-1,2.561642795E0
7.664456716E0,3.757762909E-2,-2.242302895E0,1.155447960E0,2.522775126E0
7.672684716E0,2.084584236E-1,-1.931462765E0,6.313728690E-1,2.042702873E0
7.680890562E0,7.682695389E-1,-1.548775196E0,2.387549281E-1,1.745264051E0
7.689097062E0,1.061241627E0,-1.124730587E0,3.888651431E-1,1.594512083E0
7.697300524E0,1.618091106E0,-7.999916077E-1,1.260810733E0,2.201783165E0
7.705536178E0,1.668896198E0,-6.884474754E-1,4.184466600E-1,1.853178905E0
7.713739293E0,1.575707436E0,-6.589031219E-1,4.580813050E-1,1.768288927E0
7.721942755E0,1.248064995E0,-4.048013687E-1,2.216941118E-1,1.330668501E0
7.730158447E0,8.957734108E-1,-3.437147141E-1,6.844831705E-1,1.178586874E0
7.738371524E0,4.376888275E-1,-5.964517593E-1,7.623497248E-1,1.062310366E0
7.746603485E0,-3.688368797E-1,-5.294275284E-1,1.161308289E0,1.328522146E0
7.754828870E0,-2.734136581E-1,-8.005938530E-1,1.072426796E0,1.365944647E0
7.763065947E0,1.273484230E-1,-1.087557793E0,1.612048388E0,1.948768734E0
7.771273024E0,-8.094270229E-1,-1.550276756E0,1.506479144E0,2.308248153E0
7.779477293E0,-1.297424078E0,-2.207050800E0,1.527197838E0,2.981059494E0
7.787706716E0,-1.597231388E0,-1.955653191E0,1.546729922E0,2.961097932E0
7.795912293E0,-1.537480116E0,-1.674653053E0,2.116735697E0,3.106264310E0
7.804116139E0,-9.820940495E-1,-1.401209831E0,1.232285857E0,2.108655056E0
7.812334716E0,-2.175545692E-1,-8.054909706E-1,1.826130152E-1,8.541037452E-1
7.820548216E0,5.750179291E-3,-5.031681061E-2,1.618009806E-1,1.695417450E-1
7.828772254E0,4.317255020E-1,7.025423050E-1,-5.372512341E-1,9.841704567E-1
7.836997139E0,5.229773521E-1,1.453315735E0,-7.419461012E-1,1.713509835E0
7.845202331E0,2.430548668E-1,2.384565353E0,7.637166977E-2,2.398136824E0
7.853438869E0,-3.406648636E-1,2.955565453E0,5.393288136E-1,3.023622870E0
7.861644369E0,-7.773180008E-1,3.087318420E0,5.327730179E-1,3.227941355E0
7.869891485E0,-8.753404617E-1,2.746670723E0,1.336085796E-1,2.885874605E0
7.878097639E0,-7.316498756E-1,2.240222931E0,1.208307743E-1,2.359769141E0
7.886302792E0,-4.164185524E-1,1.682213783E0,1.156878471E-2,1.733026676E0
7.894518331E0,-3.591151237E-1,1.295120239E0,-2.873549461E-1,1.374362751E0
7.902732638E0,1.099109650E-2,8.362798691E-1,-2.363464832E-1,8.691055654E-1
7.910967485E0,1.602668762E-1,5.912790298E-1,-6.931147575E-1,9.250429341E-1
7.919194792E0,8.014678955E-2,5.285558701E-1,-6.590312719E-1,8.485970970E-1
7.927402215E0,1.055202484E-1,3.865251541E-1,-4.023394585E-1,5.678144569E-1
7.935611408E0,-2.880287170E-2,3.869619370E-1,1.151337624E-1,4.047529238E-1
7.943818561E0,-3.761568069E-1,2.536525726E-1,3.451116085E-1,5.700312214E-1
7.952063523E0,-8.291501999E-1,1.092147827E-2,2.103388309E-1,8.554833467E-1
7.960271907E0,-1.919493675E0,-2.108554840E-1,-1.871712208E-1,1.940089964E0
7.968476984E0,-2.435347795E0,-3.005123138E-1,2.655866146E-1,2.468149668E0
7.976694138E0,-2.218778610E0,-1.794233322E-1,7.370052338E-1,2.344855639E0
7.984905254E0,-2.241512775E0,2.486276627E-1,9.012842178E-1,2.428684516E0
7.993134561E0,-2.039607763E0,6.821336746E-1,8.566966057E-1,2.315002214E0
8.001363407E0,-1.657827377E0,1.147685051E0,6.252086163E-1,2.111032544E0
8.009603215E0,-1.037841320E0,1.529432297E0,5.101077557E-1,1.917416929E0
8.017817523E0,-5.805034637E-1,1.884142876E0,7.451696396E-1,2.107666112E0
8.026023792E0,-2.719135284E-1,2.095924377E0,9.661495686E-1,2.323850458E0
8.034256100E0,1.936187744E-1,2.123933792E0,8.715400696E-1,2.303945545E0
8.042464099E0,6.572175026E-1,1.991427422E0,6.116783619E-1,2.184460675E0
8.050671830E0,9.988493919E-1,1.762732506E0,3.660166264E-1,2.058857490E0
8.058913292E0,1.124551773E0,1.535730362E0,3.382682800E-1,1.933264044E0
8.067126676E0,1.489744186E0,1.192958832E0,2.789969444E-1,1.928815131E0
8.075363407E0,1.564851284E0,8.563079834E-1,4.650328159E-1,1.843442004E0
8.083589522E0,1.174265862E0,4.355421066E-1,5.830574036E-1,1.381503954E0
8.091794792E0,7.351341248E-1,-4.524993896E-2,2.624590397E-1,7.818916075E-1
8.100014292E0,3.297572136E-1,-4.651851654E-1,1.438727379E-1,5.880785855E-1
8.108219368E0,9.825801849E-2,-6.439399719E-1,3.418116570E-1,7.356279865E-1
8.116464984E0,1.426033974E-1,-7.956290245E-1,4.409081936E-1,9.207395445E-1
8.124670061E0,2.456088066E-1,-8.422470093E-1,4.049587250E-1,9.662790898E-1
8.132877291E0,2.699971199E-1,-8.602414131E-1,2.012600899E-1,9.238069914E-1
8.141106676E0,4.030413628E-1,-7.997584343E-1,2.135026455E-1,9.206732716E-1
8.149322022E0,4.242200851E-1,-7.712621689E-1,1.656594276E-1,8.956846877E-1
8.157560253E0,3.472218513E-1,-5.757384300E-1,2.041466236E-1,7.026475630E-1
8.165788137E0,3.802413940E-1,-3.497056961E-1,3.607587814E-1,6.300987939E-1
8.173994945E0,3.446383476E-1,-2.359323502E-1,1.587889194E-1,4.468261244E-1
8.182212830E0,4.122710228E-1,-1.448621750E-1,7.952761650E-2,4.441588542E-1
8.190419253E0,3.848605156E-1,-1.346416473E-1,2.027654648E-2,4.082366079E-1
8.198666060E0,4.303104877E-1,-1.424245834E-1,1.894211769E-2,4.536636217E-1
8.206874253E0,3.947017193E-1,-3.369464874E-1,-5.702471733E-2,5.220863923E-1
8.215083099E0,2.880718708E-1,-4.905986786E-1,-6.536793709E-2,5.726652018E-1
8.223310022E0,3.703362942E-1,-7.202157974E-1,-8.267021179E-2,8.140602739E-1
8.231527714E0,4.898161888E-1,-9.763693810E-1,-4.587507248E-2,1.093307637E0
8.239769368E0,6.972489357E-1,-1.246919155E0,3.380382061E-2,1.429022798E0
8.247997791E0,6.334469318E-1,-1.371791840E0,1.721333265E-1,1.520755651E0
8.256237483E0,5.447022915E-1,-1.446526051E0,3.195149899E-1,1.578362452E0
8.264456522E0,3.785190582E-1,-1.447431564E0,3.960691690E-1,1.547645178E0
8.272664791E0,2.709085941E-1,-1.496482849E0,5.012482405E-1,1.601281419E0
8.280911945E0,1.122124195E-1,-1.529028893E0,3.764184713E-1,1.578674079E0
8.289120022E0,-4.693913460E-2,-1.437637329E0,5.104787350E-1,1.526300400E0
8.297326906E0,-1.944937706E-1,-1.416604519E0,4.197256565E-1,1.490223412E0
8.305555675E0,-2.900588512E-1,-1.396097660E0,2.756209373E-1,1.452304966E0
8.313771791E0,-4.312069416E-1,-1.328116417E0,3.468360901E-1,1.438793910E0
8.322012175E0,-4.836242199E-1,-1.357424736E0,2.827948928E-1,1.468491488E0
8.330240214E0,-5.591037273E-1,-1.712052822E0,-1.821314096E-1,1.810219239E0
8.338448521E0,-6.987760067E-1,-1.473864079E0,-3.138923347E-1,1.661051362E0
8.346659560E0,-4.121899605E-1,-9.874258041E-1,9.169232845E-2,1.073926331E0
8.354866944E0,-4.026198387E-2,-7.253026962E-1,5.264811516E-1,8.971440417E-1
8.363115291E0,7.226419449E-2,-5.615291595E-1,5.260804296E-1,7.728503925E-1
8.371322406E0,2.993915081E-1,-7.053604126E-1,2.209782302E-1,7.974960596E-1
8.379528598E0,2.091722488E-1,-7.999696732E-1,-2.735542059E-1,8.709399584E-1
8.387745560E0,-6.015443802E-2,-8.287277222E-1,-3.966568112E-1,9.207305902E-1
8.395960175E0,-1.289980412E-1,-8.604555130E-1,-3.439942598E-1,9.356047431E-1
8.404193406E0,-1.384496689E-1,-8.505220413E-1,-4.740215540E-1,9.834899528E-1
8.412421367E0,-3.314979076E-1,-6.795597076E-1,-7.483081520E-2,7.597972821E-1
8.420628675E0,-5.136320591E-1,-4.499664307E-1,5.753096938E-1,8.928991682E-1
8.428839867E0,-2.608683109E-1,-4.723958969E-1,1.279165864E0,1.388335502E0
8.437047290E0,-2.045900822E-1,-1.872186661E-1,1.178388119E0,1.210581054E0
8.445294906E0,-7.034472227E-1,1.446714401E-1,7.073214650E-1,1.008003708E0
8.453501059E0,-6.081252098E-1,2.624073029E-1,5.577192307E-1,8.658663890E-1
8.461708636E0,-9.845994115E-1,5.233316422E-1,3.758922219E-2,1.115672424E0
8.469936136E0,-1.268323660E0,9.033641815E-1,-2.826769650E-1,1.582598502E0
8.478152136E0,-1.479973078E0,1.210923195E0,-1.933357120E-1,1.921986991E0
8.486384329E0,-1.684399128E0,1.477652550E0,-4.871499538E-1,2.293026942E0
8.494612252E0,-1.875735164E0,1.607329369E0,-6.727311611E-1,2.560167440E0
8.502852675E0,-1.995353341E0,1.760590553E0,-8.402681351E-1,2.790549156E0
8.511081405E0,-1.841616988E0,1.819920540E0,-6.506505609E-1,2.669646054E0
8.519288290E0,-1.574943066E0,1.801769257E0,-3.547962308E-1,2.419235102E0
8.527537098E0,-1.308348656E0,1.576526642E0,-2.309314013E-1,2.061684207E0
8.535744021E0,-1.327206731E0,1.469347000E0,-1.755843163E-1,1.987784738E0
8.543951559E0,-1.331988096E0,1.039704323E0,-7.548123598E-2,1.691412068E0
8.552177328E0,-1.452111959E0,5.438871384E-1,2.110520005E-2,1.550770064E0
8.560395328E0,-1.481221795E0,2.265930176E-2,-1.269340515E-3,1.481395646E0
8.568635059E0,-1.200467229E0,-4.280138016E-1,1.177843809E-1,1.279918178E0
8.576860751E0,-9.908938408E-1,-6.430721283E-1,2.692082226E-1,1.211563219E0
8.585068636E0,-7.897548676E-1,-7.087087631E-1,4.559617639E-1,1.154938090E0
8.593290213E0,-6.999224424E-1,-5.914545059E-1,4.575933814E-1,1.024256589E0
8.601499174E0,-4.904567003E-1,-3.704166412E-1,3.377884030E-1,7.013253654E-1
8.609748597E0,-4.735930860E-1,-1.079387665E-1,2.362070531E-1,5.401249488E-1
8.617956943E0,-4.830188155E-1,1.144409180E-1,1.210455298E-1,5.109363171E-1
8.626165559E0,-5.276425481E-1,1.553544998E-1,7.582877576E-2,5.552402024E-1
8.634396290E0,-5.937286019E-1,9.608268738E-2,9.033778310E-2,6.081993511E-1
8.642616020E0,-7.839784622E-1,-7.066440582E-2,2.547815740E-1,8.273628816E-1
8.650858213E0,-7.631672621E-1,-3.833217621E-1,7.693605125E-2,8.574841102E-1
8.659087982E0,-8.104124069E-1,-4.876356125E-1,1.155512482E-1,9.528425110E-1
8.667296751E0,-6.435303688E-1,-5.082044601E-1,1.556394100E-1,8.346416805E-1
8.675514020E0,-3.524239063E-1,-4.474334717E-1,2.337306738E-1,6.156535951E-1
8.683722289E0,-1.254929006E-1,-4.082822800E-1,5.072046071E-2,4.301342272E-1
8.691970520E0,8.108153939E-2,-2.949724197E-1,-3.786678314E-1,4.867979776E-1
8.700181366E0,2.616014481E-1,-2.702751160E-1,-8.205848336E-1,9.026867813E-1
8.708392828E0,2.787975073E-1,-2.120580673E-1,-9.230067134E-1,9.872375940E-1
8.716619366E0,2.815136313E-1,-1.442565918E-1,-8.301104307E-1,8.883373324E-1
8.724836828E0,2.380464077E-1,-8.365154266E-2,-6.226758361E-1,6.718547980E-1
8.733080405E0,2.607451379E-1,-5.657482147E-2,-3.502089679E-1,4.402670310E-1
8.741309674E0,2.613049746E-1,1.841926575E-2,-1.618202776E-1,3.079047926E-1
8.749551481E0,2.659183145E-1,6.234073639E-2,2.983903885E-2,2.747531358E-1
8.757771212E0,2.312621176E-1,1.518268585E-1,1.515699625E-1,3.154473261E-1
8.765981212E0,3.048585355E-1,1.935033798E-1,2.071297616E-1,4.162751768E-1
8.774229520E0,2.769137621E-1,2.015800476E-1,2.568317652E-1,4.281101527E-1
8.782438827E0,2.308880389E-1,1.621026993E-1,2.553957105E-1,3.805437433E-1
8.790648712E0,1.722364128E-1,9.406471252E-2,1.785830110E-1,2.653402417E-1
8.798878981E0,2.133920193E-1,-6.951713562E-2,5.244880915E-2,2.304770349E-1
8.807094943E0,2.079970241E-1,-2.280721664E-1,1.223166585E-1,3.320256618E-1
8.815338558E0,3.103983998E-1,-2.976980209E-1,1.434794962E-1,4.533846536E-1
8.823569596E0,3.158297539E-1,-4.338197708E-1,2.033723295E-1,5.738539286E-1
8.831779404E0,2.877815962E-1,-5.333595276E-1,2.535051703E-1,6.569288425E-1
8.840001135E0,2.486065179E-1,-6.943473816E-1,2.411938608E-1,7.759497184E-1
8.848212058E0,2.318878770E-1,-9.597311020E-1,2.700806260E-1,1.023620692E0
8.856460712E0,3.105423152E-1,-1.207387924E0,2.569397092E-1,1.272886540E0
8.864670866E0,1.405386329E-1,-1.334160805E0,1.189283133E-1,1.346803662E0
8.872881942E0,-3.141015768E-2,-1.242004395E0,-1.965761185E-4,1.242401526E0
8.881107058E0,-2.489138544E-1,-1.012464523E0,-2.025294304E-1,1.062102014E0
8.889323981E0,-5.097196102E-1,-5.714883804E-1,-4.225677252E-1,8.746293686E-1
8.897559904E0,-6.971601844E-1,-5.857658386E-2,-7.246849537E-1,1.007289343E0
8.905787481E0,-1.063885689E0,4.447145462E-1,-9.945510626E-1,1.522746073E0
8.913994635E0,-1.518921614E0,9.162807465E-1,-1.268659472E0,2.180869123E0
8.922229212E0,-2.096162081E0,1.231513977E0,-1.364529252E0,2.787913597E0
8.930435519E0,-2.513368368E0,1.135939598E0,-1.165083647E0,2.994127457E0
8.938674019E0,-3.067574501E0,9.232845306E-1,-8.887393475E-1,3.324503763E0
8.946879711E0,-3.327656746E0,5.194444656E-1,-3.056118488E-1,3.381792509E0
8.955087134E0,-3.406457424E0,1.857347488E-1,3.524248600E-1,3.429672413E0
8.963306442E0,-3.400989532E0,-1.611833572E-1,1.040119648E0,3.560134654E0
8.971520942E0,-3.400424480E0,-3.483734131E-1,1.451461554E0,3.713622399E0
8.979750750E0,-3.417808771E0,-3.944406509E-1,1.598976016E0,3.793906235E0
8.987977019E0,-3.147070169E0,-3.926143646E-1,1.567474365E0,3.537678982E0
8.996209250E0,-2.562949181E0,-3.426160812E-1,1.291195154E0,2.890204008E0
9.004418750E0,-1.471642494E0,-4.477901459E-1,8.558445573E-1,1.760317458E0
9.012626865E0,-1.052352428E0,-4.039392471E-1,3.632886410E-1,1.184310426E0
9.020869134E0,-1.243605494E0,-2.925472260E-1,-2.003300190E-2,1.277708819E0
9.029077250E0,-1.406867266E0,-2.241592407E-1,-3.701467514E-1,1.471914225E0
9.037284788E0,-1.443595290E0,-1.896352768E-1,-5.593098402E-1,1.559729591E0
9.045518288E0,-1.332587719E0,-2.681350708E-1,-6.116055250E-1,1.490552838E0
9.053735288E0,-1.232557774E0,-3.951416016E-1,-5.301085711E-1,1.398696053E0
9.061969673E0,-1.184509516E0,-5.250835419E-1,-4.197311401E-1,1.361965399E0
9.070197788E0,-1.219528913E0,-6.385450363E-1,-2.430989742E-1,1.397886850E0
9.078406557E0,-1.335871935E0,-7.113933563E-1,-1.376619339E-1,1.519731931E0
9.086626826E0,-1.380477428E0,-7.027692795E-1,-3.771996498E-2,1.549524245E0
9.094836634E0,-1.442674160E0,-5.718994141E-1,-2.223014832E-3,1.551896457E0
9.103084788E0,-1.431746006E0,-4.072465897E-1,1.537787914E-2,1.488617778E0
9.111293288E0,-1.349616528E0,-2.328090668E-1,3.848695755E-2,1.370089807E0
9.119500634E0,-1.136951208E0,-8.694362640E-2,1.054749489E-1,1.145138511E0
9.127729134E0,-8.767232299E-1,-7.494544983E-2,1.946966648E-1,9.012032144E-1
9.135945557E0,-5.732489824E-1,-1.129941940E-1,2.916491032E-1,6.530247186E-1
9.144188941E0,-3.292807341E-1,-1.481733322E-1,3.381994367E-1,4.947322480E-1
9.152418441E0,-9.386372566E-2,-1.828413010E-1,3.317249417E-1,3.902342595E-1
9.160628634E0,1.566701531E-1,-1.642646790E-1,7.899928093E-2,2.403524662E-1
9.168848403E0,4.169785380E-1,-1.452465057E-1,-1.642895937E-1,4.711249507E-1
9.177057441E0,6.727952957E-1,-4.930782318E-2,-3.441832066E-1,7.573287602E-1
9.185305634E0,7.653895617E-1,7.787704468E-2,-4.806008339E-1,9.071180611E-1
9.193511980E0,8.582854271E-1,1.620979309E-1,-5.885171890E-1,1.053224618E0
9.201716749E0,9.098980427E-1,1.769475937E-1,-5.957781076E-1,1.101896752E0
9.209940364E0,9.216012955E-1,1.150827408E-1,-5.408734083E-1,1.074773013E0
9.218153749E0,9.550572634E-1,8.907794952E-2,-4.298418760E-1,1.051110506E0
9.226392403E0,9.270358086E-1,5.329227448E-2,-2.329548597E-1,9.573418530E-1
9.234619518E0,9.386144876E-1,-2.805995941E-2,1.701092720E-2,9.391878882E-1
9.242860056E0,9.505378008E-1,-9.270286560E-2,2.401792407E-1,9.847852556E-1
9.251078441E0,9.915302992E-1,-1.309633255E-1,4.207292795E-1,1.085033112E0
9.259286095E0,9.708529711E-1,-1.738882065E-1,5.447471738E-1,1.126739581E0
9.267536326E0,1.027325034E0,-2.046756744E-1,5.383130908E-1,1.177739293E0
9.275745364E0,1.008260846E0,-1.777420044E-1,4.444014430E-1,1.116098023E0
9.283953287E0,1.024070024E0,-1.603593826E-1,3.085172176E-1,1.081488521E0
9.292182364E0,1.062489033E0,-1.239204407E-1,2.399308681E-1,1.096269147E0
9.300396056E0,1.114702225E0,-8.757305145E-2,9.640312195E-2,1.122285013E0
9.308635325E0,1.164520502E0,-1.292228699E-3,-1.447510719E-2,1.164611179E0
9.316863248E0,1.166705132E0,8.945369720E-2,-4.490435123E-2,1.170990704E0
9.325070441E0,1.033672929E0,1.702957153E-1,1.371347904E-2,1.047696718E0
9.333289787E0,8.613238931E-1,2.053461075E-1,2.189557552E-1,9.121334855E-1
9.341496902E0,7.209561467E-1,1.325473785E-1,4.194157124E-1,8.445449146E-1
9.349744325E0,6.630657911E-1,-2.459526062E-3,5.559270978E-1,8.652844796E-1
9.357951402E0,5.251607895E-1,-1.322584152E-1,6.018332839E-1,8.096230264E-1
9.366159018E0,3.961386085E-1,-2.471647263E-1,5.717296600E-1,7.381673274E-1
9.374382941E0,2.951654792E-1,-3.543233871E-1,5.278699398E-1,7.009382256E-1
9.382598017E0,2.100290060E-1,-3.987417221E-1,4.865132570E-1,6.631759145E-1
9.390835171E0,1.433018446E-1,-4.213647842E-1,4.602984190E-1,6.402798877E-1
9.399061825E0,8.064186573E-2,-4.507732391E-1,4.379736185E-1,6.336564638E-1
9.407268902E0,-1.884829998E-2,-4.392461777E-1,4.443856478E-1,6.251168426E-1
9.415486863E0,-1.651415825E-1,-4.154443741E-1,4.722915888E-1,6.503269294E-1
9.423693594E0,-1.964911222E-1,-4.009723663E-1,5.316698551E-1,6.943057212E-1
9.431941633E0,-2.370511293E-1,-3.935918808E-1,6.741323471E-1,8.158199728E-1
9.440151671E0,-2.329940200E-1,-4.821376801E-1,8.468004465E-1,1.001905161E0
9.448361902E0,-2.700777054E-1,-5.439767838E-1,9.028949738E-1,1.088150744E0
9.456592825E0,-3.550350666E-1,-5.381708145E-1,9.079260826E-1,1.113556238E0
9.464809517E0,-4.263191223E-1,-4.839305878E-1,8.402757645E-1,1.059245094E0
9.473050940E0,-4.714865685E-1,-3.601131439E-1,7.791125774E-1,9.792841615E-1
9.481279402E0,-4.652379155E-1,-2.817211151E-1,7.340928316E-1,9.136221266E-1
9.489520363E0,-6.032856703E-1,-2.202014923E-1,7.640236616E-1,9.980853935E-1
9.497739709E0,-6.752605438E-1,-1.661243439E-1,8.756281137E-1,1.118167560E0
9.505947979E0,-6.510617137E-1,-2.059249878E-1,9.373290539E-1,1.159686255E0
9.514196094E0,-5.983475447E-1,-4.111814499E-1,1.090839267E0,1.310351203E0
9.522405594E0,-5.496706367E-1,-5.707025528E-1,1.202256441E0,1.439881857E0
9.530615055E0,-5.619216561E-1,-7.487840652E-1,1.189022899E0,1.513343642E0
9.538840555E0,-5.810242891E-1,-9.593296051E-1,1.187261939E0,1.633246285E0
9.547055786E0,-5.487275720E-1,-1.039343834E0,1.025544286E0,1.559832887E0
9.555295786E0,-3.454461098E-1,-1.149355888E0,8.586583138E-1,1.475684950E0
9.563524017E0,-1.397417784E-1,-1.284438133E0,6.725530624E-1,1.456583916E0
9.571733478E0,5.148059130E-2,-1.409296036E0,4.663035870E-1,1.485329796E0
9.579955478E0,1.480876505E-1,-1.411787987E0,3.912384510E-1,1.472461476E0
9.588164978E0,2.187535912E-1,-1.382848740E0,3.829441071E-1,1.451471653E0
9.596408247E0,2.201613486E-1,-1.277110100E0,3.212044239E-1,1.335160480E0
9.604617017E0,1.286794245E-1,-1.134867668E0,3.991146088E-1,1.209865897E0
9.612824517E0,4.058204591E-2,-1.051642418E0,7.011539936E-1,1.264600965E0
9.621054670E0,1.676759869E-2,-1.024200439E0,5.450601578E-1,1.160326794E0
9.629270478E0,5.678250268E-2,-1.099907875E0,6.907951832E-1,1.300084448E0
9.637510516E0,4.664119706E-2,-1.270944595E0,7.609939575E-1,1.482088853E0
9.645739401E0,1.048074067E-1,-1.603531837E0,8.622906208E-1,1.823689683E0
9.653948670E0,2.572143078E-1,-1.958538055E0,8.408198357E-1,2.146860152E0
9.662186401E0,3.171018064E-1,-2.296499729E0,7.967548370E-1,2.451383861E0
9.670395478E0,6.998631358E-1,-2.731494427E0,5.893456936E-1,2.880659397E0
9.678629324E0,1.045160770E0,-3.020570278E0,3.505129814E-1,3.215441679E0
9.686838247E0,1.290169239E0,-3.170809746E0,1.038634777E-1,3.424815138E0
9.695046016E0,1.413352370E0,-3.073414803E0,-2.015452385E-1,3.388814535E0
9.703289785E0,1.435023069E0,-2.807863235E0,-2.895293236E-1,3.166577709E0
9.711505824E0,1.699930906E0,-2.076503277E0,8.938558102E-1,2.828534807E0
9.719744593E0,2.474135876E0,-5.956592560E-1,4.426085472E0,5.105525525E0
9.727972016E0,5.246553898E0,3.501767159E0,8.552831650E0,1.062730588E1
9.736212478E0,5.702216625E0,7.705178261E0,-6.431369781E-1,9.607219767E0
9.744449939E0,4.877144814E0,7.192684174E0,-1.088139534E0,8.758155902E0
9.752658324E0,1.548891783E0,5.225526810E0,-3.676661491E0,6.574422858E0
9.760902247E0,1.846771240E-1,1.101176262E0,-2.383270741E0,2.631857561E0
9.769111170E0,-1.923062563E0,-1.646392345E0,-4.028863907E0,4.758205729E0
9.777319401E0,-1.623890877E0,-4.227526665E0,-4.643676281E0,6.486349719E0
9.785568516E0,-1.941285372E0,-5.748018265E0,-3.415132523E0,6.962142846E0
9.793782670E0,-2.151814461E0,-6.650658607E0,-3.569493294E-1,6.999212685E0
9.802007670E0,-3.138843060E0,-8.945422173E0,9.932126045E0,1.373026006E1
9.810234593E0,-3.544530392E0,-7.656828880E0,2.448599625E1,2.589893311E1
9.818442323E0,-5.690498352E0,-8.756524086E0,1.841267014E1,2.116801613E1
9.826681631E0,-6.773369312E0,-8.418748856E0,-6.115501404E0,1.241584558E1
9.834890016E0,-3.258401394E0,-5.229443550E0,-1.546770573E1,1.664975015E1
9.843125593E0,-8.124321699E-3,-5.156218529E0,-1.712641716E1,1.788577145E1
9.851333977E0,6.213688850E0,-3.566088676E0,-1.901264668E0,7.412268540E0
9.859543669E0,3.513750076E0,-1.973060131E0,-2.011393547E0,4.503899408E0
9.867788746E0,2.581994534E-1,-1.678619385E0,-5.459119320E0,5.717203315E0
9.876006362E0,-1.440909982E0,-1.969839334E0,-7.230516434E0,7.631307652E0
9.884235477E0,3.423900604E-1,-1.931785107E0,-6.471047401E0,6.761913865E0
9.892466439E0,1.337068796E0,-1.675415754E0,-4.595948219E0,5.071243531E0
9.900676746E0,2.453147769E-1,-6.639547348E-1,-4.829013824E0,4.880613665E0
9.908917477E0,-2.119977474E-1,-8.621010780E-1,-5.709046364E0,5.777661439E0
9.917128323E0,2.056701183E-1,-2.545375824E-1,-6.964560509E0,6.972244449E0
9.925364131E0,1.428868651E0,4.049749374E-1,-6.695433617E0,6.858170429E0
9.933574631E0,2.164796114E0,8.497257233E-1,-7.997398376E0,8.328670771E0
9.941783861E0,2.005047560E0,1.049059391E0,-8.804268837E0,9.090428542E0
9.950034054E0,1.774399400E0,8.739843369E-1,-7.553904533E0,7.808573208E0
9.958250361E0,1.447287440E0,7.789344788E-1,-6.625352859E0,6.826176116E0
9.966462784E0,1.579108477E0,6.096749306E-1,-5.823276520E0,6.064308413E0
9.974690169E0,1.405602336E0,2.973318100E-1,-5.488153458E0,5.673090208E0
9.982924631E0,1.388006210E0,1.087422371E-1,-4.772862434E0,4.971780559E0
9.991162284E0,1.108175755E0,-5.825042725E-2,-3.955311775E0,4.108033332E0
9.999370092E0,7.970018387E-1,-2.096052170E-1,-3.704072952E0,3.794641316E0
1.000760113E1,1.711332560E0,-9.280872345E-2,-3.551413536E0,3.943324827E0
1.001580798E1,1.319945812E0,-3.468530178E-1,-3.131248474E0,3.415740179E0
1.002401478E1,1.707275391E0,-1.804900169E-1,-3.050704956E0,3.500595183E0
1.003225767E1,1.584757328E0,-2.354145050E-1,-2.776365280E0,3.205476555E0
1.004047559E1,1.964770079E0,-4.254562855E-1,-2.375986099E0,3.112337459E0
1.004870182E1,1.766463995E0,-4.033195972E-1,-2.019670486E0,2.713324643E0
1.005693232E1,1.189300060E0,-2.596516609E-1,-1.748451233E0,2.130477724E0
1.006514113E1,1.659407616E0,-2.974028587E-1,-1.540539742E0,2.283712940E0
1.007335532E1,8.522844315E-1,-3.070755005E-1,-1.222976685E0,1.521957978E0
1.008156305E1,7.227835655E-1,-5.258185863E-1,-8.891525269E-1,1.260751159E0
1.008980355E1,9.595236778E-1,-6.449334621E-1,-4.286127090E-1,1.233018132E0
1.009801044E1,9.954845905E-1,-7.654826641E-1,1.034049988E-1,1.260018203E0
1.010621590E1,9.461884499E-1,-6.206111908E-1,1.808910370E-1,1.145928619E0
1.011443324E1,8.738167286E-1,-5.774202347E-1,-8.760643005E-2,1.051020784E0
1.012264602E1,9.333090782E-1,-5.485429764E-1,-1.995315552E-1,1.100807919E0
1.013088067E1,1.448433638E0,-7.606878281E-1,-3.136682510E-1,1.665831248E0
1.013910644E1,8.803884983E-1,-1.154127121E0,-2.156763077E-1,1.467518173E0
1.014731213E1,7.155208588E-1,-1.292288780E0,1.988048553E-1,1.490470986E0
1.015552601E1,6.712963581E-1,-1.069463491E0,7.404479980E-1,1.463780789E0
1.016373213E1,9.494876862E-2,-9.280772209E-1,6.363449097E-1,1.129281825E0
1.017197955E1,8.129358292E-3,-5.692439079E-1,5.284862518E-1,7.767898246E-1
1.018018659E1,4.698204994E-2,-4.446616173E-1,4.577221870E-1,6.398756656E-1
1.018839440E1,-1.468038559E-2,-4.853820801E-1,6.195354462E-2,4.895401098E-1
1.019661948E1,-5.499712229E-1,-4.696159363E-1,-9.893512726E-2,7.299285123E-1
1.020483651E1,-4.008450508E-1,-6.225299835E-2,-5.328121185E-1,6.696573334E-1
1.021307813E1,-4.309453964E-1,-4.436492920E-2,-5.455007553E-1,6.966012171E-1
1.022130605E1,-5.787853003E-1,-1.952271461E-1,-2.930307388E-1,6.774755171E-1
1.022954613E1,-9.741027355E-1,-8.648967743E-2,8.020687103E-2,9.812185005E-1
1.023776555E1,-1.280573845E0,-5.175290108E-1,2.883186340E-1,1.410968917E0
1.024597421E1,-1.259880543E0,-4.944849014E-1,3.262686729E-1,1.392216056E0
1.025422259E1,-1.356831193E0,-6.698436737E-1,1.206212044E-1,1.517969337E0
1.026243159E1,-1.258324385E0,-8.211841583E-1,6.123971939E-2,1.503819797E0
1.027063963E1,-1.051420689E0,-4.818596840E-1,-9.507751465E-2,1.160480053E0
1.027886913E1,-3.653974533E-1,-8.442406654E-1,8.639001846E-2,9.239701485E-1
1.028708594E1,-1.431410313E-1,-5.390815735E-1,-3.857851028E-2,5.590944457E-1
1.029532674E1,2.855606079E-1,2.656536102E-1,-9.926509857E-2,4.024552909E-1
1.030355625E1,-6.144576073E-1,6.509199142E-1,6.067647934E-1,1.081396505E0
1.031176490E1,-1.916367769E0,7.828907967E-1,1.287766933E0,2.437976026E0
1.031998063E1,-2.229921103E0,4.667520523E-2,2.140810013E0,3.091568244E0
1.032819028E1,-1.558090329E0,-9.105596542E-1,2.314772129E0,2.935120844E0
1.033642590E1,-8.456535339E-1,-1.235341072E0,1.614600658E0,2.201847576E0
1.034463571E1,-3.698625565E-1,-1.225789547E0,1.026973724E-1,1.284486308E0
1.035284421E1,-4.223077297E-1,-1.317125320E0,-1.126420975E0,1.783812530E0
1.036108901E1,2.153303623E-1,-1.105388641E0,-2.100084305E0,2.382982438E0
1.036930463E1,1.563136578E-1,-1.501182556E0,-2.346378326E0,2.789887861E0
1.037753121E1,5.568223000E-1,-1.084710598E0,-2.411016464E0,2.701786177E0
1.038576109E1,4.480285645E-1,-7.437267303E-1,-2.369905949E0,2.523947949E0
1.039397171E1,1.869902611E-1,-4.145798683E-1,-1.248948574E0,1.329178079E0
1.040218290E1,-3.486158848E-1,1.578059196E-1,-9.109735489E-2,3.933630276E-1
1.041039244E1,-3.306918144E-1,2.144441605E-1,1.461072445E0,1.513299727E0
1.041862609E1,-2.825763226E-1,1.199197769E0,2.734760761E0,2.999473469E0
1.042683309E1,-9.865541458E-1,1.132028580E0,3.376857042E0,3.695665200E0
1.043504044E1,-1.308893204E0,4.800300598E-1,4.190767765E0,4.416578397E0
1.044329013E1,-1.947474957E0,6.343541145E-1,4.511120319E0,4.954318357E0
1.045150755E1,-1.583239079E0,9.555315971E-1,4.230031967E0,4.616584999E0
1.045973309E1,-8.782746792E-1,2.137632370E-1,3.564781666E0,3.677598327E0
1.046796190E1,-3.461084366E-1,1.202316284E-1,2.558531761E0,2.584633720E0
1.047620432E1,-3.028640747E-1,3.584694862E-1,1.628090382E0,1.694374608E0
1.048441601E1,-2.507710457E-1,3.925151825E-1,9.713735580E-1,1.077274744E0
1.049262482E1,-3.862471581E-1,3.756341934E-1,3.350663185E-1,6.344740753E-1
1.050086520E1,-1.578273773E-1,2.109084129E-1,-4.144167900E-1,4.910530679E-1
1.050907528E1,1.819376945E-1,3.045716286E-1,-2.767410278E-1,4.499453279E-1
1.051728417E1,7.380628586E-2,3.387522697E-1,-5.743489265E-1,6.708779006E-1
1.052550155E1,-7.455587387E-2,2.540497780E-1,-4.110131264E-1,4.889086398E-1
1.053371767E1,1.267518997E-1,4.038920403E-1,-4.130563736E-1,5.914477086E-1
1.054195221E1,3.117814064E-1,3.072295189E-1,-1.002303600E0,1.093713916E0
1.055018290E1,2.899498940E-1,3.632121086E-1,-1.502655029E0,1.572884647E0
1.055839336E1,1.820425987E-1,4.613175392E-1,-1.139503479E0,1.242747584E0
1.056661363E1,3.461689949E-1,2.208428383E-1,-1.279171467E0,1.343459778E0
1.057482251E1,5.050244331E-1,2.778801918E-1,-1.451925278E0,1.562163273E0
1.058306917E1,6.880121231E-1,9.616851807E-2,-1.556230545E0,1.704248390E0
1.059127947E1,9.407048225E-1,8.088302612E-2,-1.773046970E0,2.008771561E0
1.059948817E1,7.542862892E-1,-7.123947144E-4,-1.668114185E0,1.830724788E0
1.060773959E1,6.445078850E-1,1.565170288E-2,-6.166090965E-1,8.920998641E-1
1.061595628E1,8.088493347E-2,7.143545151E-2,2.874259949E-1,3.070164470E-1
1.062417897E1,1.192874908E-1,5.025863647E-4,6.128435135E-1,6.243452011E-1
1.063240524E1,1.238651276E-1,3.404617310E-4,8.496756554E-1,8.586567446E-1
1.064061155E1,1.783394814E-1,-8.476066589E-2,1.301123619E0,1.316021281E0
1.064882040E1,6.191606522E-1,-3.239951134E-1,1.376018524E0,1.543295087E0
1.065702786E1,3.743214607E-1,-8.657741547E-2,8.458013535E-1,9.289736995E-1
1.066526678E1,8.540148735E-1,-3.872537613E-1,6.398801804E-1,1.135232807E0
1.067347478E1,7.801222801E-1,-1.401715279E-1,-3.260278702E-2,7.932854284E-1
1.068168259E1,1.195194244E0,-3.289494514E-1,-2.411179543E-1,1.262867725E0
1.068990013E1,9.567995071E-1,-2.793612480E-1,-3.146777153E-1,1.045241632E0
1.069811486E1,7.624697685E-1,-2.844071388E-1,-2.311038971E-1,8.459648809E-1
1.070635494E1,6.502313614E-1,-1.329321861E-1,-7.084941864E-1,9.707913275E-1
1.071458120E1,6.027026176E-1,-1.362891197E-1,-1.024276257E0,1.196230337E0
1.072281878E1,7.599153519E-1,-3.667483330E-1,-1.533959389E0,1.750716164E0
1.073102801E1,6.096897125E-1,-4.040937424E-1,-1.390159607E0,1.570845960E0
1.073923505E1,2.306208611E-1,-3.136949539E-1,-9.631905556E-1,1.038906421E0
1.074748517E1,6.713867188E-1,-5.505194664E-1,-3.901691437E-1,9.518738202E-1
1.075569228E1,6.182675362E-1,-4.321241379E-1,-4.606604576E-1,8.838518394E-1
1.076389924E1,7.824420929E-1,-5.412273407E-1,-1.013105392E0,1.389793222E0
1.077212817E1,5.691347122E-1,-5.693173409E-1,-6.568841934E-1,1.039005967E0
1.078034386E1,4.426922798E-1,-5.764703751E-1,-1.133459568E0,1.346486220E0
1.078858259E1,2.390427589E-1,-3.971486092E-1,-1.143680096E0,1.234047252E0
1.079681240E1,4.693183899E-1,5.570745468E-2,-1.293807507E0,1.377425474E0
1.080502051E1,6.358885765E-1,-3.094887733E-1,-1.264071941E0,1.448452780E0
1.081324128E1,1.280559063E0,-1.017152309E0,-4.318752289E-1,1.691433282E0
1.082144859E1,7.915120125E-1,-2.223334312E-1,-1.055269241E0,1.337728146E0
1.082969574E1,5.108833313E-1,-2.903866768E-1,-6.694869995E-1,8.908080841E-1
1.083790278E1,4.635386467E-1,-3.610839844E-1,4.546785355E-2,5.893361065E-1
1.084610978E1,5.243830681E-1,-8.717250824E-2,7.624230385E-1,9.294436712E-1
1.085432774E1,3.859815598E-1,9.606456757E-2,1.028294563E0,1.102542459E0
1.086254428E1,2.445154190E-1,7.310771942E-2,8.350658417E-1,8.731938437E-1
1.087077482E1,2.349557877E-1,4.023456573E-2,7.269182205E-1,7.650053214E-1
1.087900486E1,1.394481659E-1,-6.918764114E-2,9.116077423E-1,9.248034367E-1
1.088721478E1,-2.634286880E-1,-3.026456833E-1,1.211535931E0,1.276247779E0
1.089542970E1,-4.024128914E-1,-3.509144783E-1,1.842471123E0,1.918274471E0
1.090363940E1,-2.750744820E-1,-1.315722466E-1,2.255032063E0,2.275554181E0
1.091188563E1,-8.955049515E-2,-2.637910843E-2,1.354347229E0,1.357560888E0
1.092009536E1,6.986379623E-2,-6.818532944E-2,2.787756920E-1,2.953744668E-1
1.092830324E1,2.092933655E-2,-1.181402206E-1,-7.865171432E-1,7.956157147E-1
1.093655140E1,-4.802751541E-2,-1.365251541E-1,-1.445353508E0,1.452581331E0
1.094476640E1,3.313989639E-1,-2.623949051E-1,-1.559435368E0,1.615708831E0
1.095299797E1,6.234464645E-1,-3.806257248E-1,-1.824055195E0,1.964876279E0
1.096122666E1,8.434114456E-1,-2.286872864E-1,-2.063011169E0,2.240458843E0
1.096946801E1,9.542016983E-1,-9.423780441E-2,-2.042836666E0,2.256670842E0
1.097767813E1,7.916591167E-1,-1.060366631E-1,-2.631608009E0,2.750150659E0
1.098588755E1,7.587070465E-1,-6.009387970E-2,-1.974502563E0,2.116106810E0
1.099413155E1,3.341233730E-1,-8.657264709E-2,-1.120877266E0,1.172816736E0
1.100234155E1,-8.328890800E-2,8.140754700E-2,-4.027128220E-2,1.232315182E-1
1.101054963E1,-4.036545753E-1,4.857807159E-1,6.850638390E-1,9.317898817E-1
1.101879340E1,-7.694897652E-1,7.076706886E-1,1.125427723E0,1.536066360E0
1.102701016E1,-9.480905533E-1,7.002582550E-1,1.571997643E0,1.964793605E0
1.103524116E1,-1.170862436E0,8.270959854E-1,1.523343086E0,2.091788893E0
1.104346828E1,-9.672992229E-1,6.644926071E-1,1.203138351E0,1.680702265E0
1.105167409E1,-1.042605400E0,6.120767593E-1,1.060626030E0,1.608288393E0
1.105988559E1,-7.799181938E-1,5.372848511E-1,6.074609756E-1,1.125147207E0
1.106809182E1,-4.664087296E-1,3.409972191E-1,2.944135666E-2,5.785179340E-1
1.107633047E1,-2.524387836E-1,3.649415970E-1,-3.209176064E-1,5.476274452E-1
1.108453655E1,-1.260578632E-1,1.214799881E-1,-8.309035301E-1,8.491458348E-1
1.109274293E1,-3.819591999E-1,1.355905533E-1,-9.064812660E-1,9.929682342E-1
1.110096559E1,-3.590579033E-1,1.605210304E-1,-1.033718586E0,1.106012520E0
1.110918143E1,-2.879214287E-1,1.746459007E-1,-1.488508224E0,1.526124724E0
1.111741197E1,-2.655503750E-1,1.298532486E-1,-1.864807129E0,1.888090172E0
1.112564047E1,-3.487160206E-1,1.411442757E-1,-2.253568172E0,2.284752520E0
1.113384767E1,-9.974288940E-2,5.189323425E-2,-2.493551254E0,2.496084816E0
1.114205801E1,-7.697567940E-1,-2.407789230E-2,-2.138027191E0,2.272502043E0
1.115026324E1,-7.647640705E-1,1.015982628E-1,-1.722425938E0,1.887309567E0
1.115850593E1,-4.850711823E-1,-5.166864395E-2,-1.906259060E0,1.967685774E0
1.116671220E1,-3.455126286E-1,-8.189296722E-2,-1.916296005E0,1.948916574E0
1.117491897E1,-2.242660522E-2,-4.056215286E-2,-1.818119049E0,1.818709740E0
1.118314040E1,3.078978062E-1,-5.577707291E-2,-1.867348194E0,1.893383590E0
1.119135616E1,4.734413624E-1,1.216602325E-2,-1.837458611E0,1.897511233E0
1.119959278E1,1.313440084E0,2.818698883E-1,-1.975371361E0,2.388863224E0
1.120782116E1,1.388437986E0,9.617137909E-2,-2.283259392E0,2.674001202E0
1.121606128E1,1.075026751E0,2.801322937E-2,-2.648825169E0,2.858800803E0
1.122429886E1,1.507341862E-1,3.340382576E-1,-2.390545368E0,2.418472557E0
1.123250747E1,-2.604296207E-1,1.159300327E0,-2.404286385E0,2.681863877E0
1.124074078E1,-2.456970215E-1,1.517219543E0,-2.097347736E0,2.600228778E0
1.124894620E1,-2.679424286E-1,4.288978577E-1,-2.187962055E0,2.245645669E0
1.125715359E1,-1.037747860E-1,-2.780251503E-1,-1.875160694E0,1.898498043E0
1.126538186E1,-2.182033062E-1,3.444223404E-1,-1.560770512E0,1.613147241E0
1.127359705E1,-1.808824539E-1,3.974294662E-1,-1.295521736E0,1.367130283E0
1.128183124E1,5.625247955E-3,-1.909618378E-1,-1.258638382E0,1.273054847E0
1.129006043E1,3.094918728E-1,-4.236030579E-1,-1.263691902E0,1.368262399E0
1.129826955E1,3.582787514E-2,-9.859547615E-1,-9.835791588E-1,1.393132582E0
1.130648486E1,6.651163101E-2,-1.724329948E0,-8.161413670E-1,1.908880378E0
1.131469428E1,3.289387226E-1,-2.398810863E0,-2.341949940E-1,2.432558640E0
1.132292716E1,-5.147051811E-2,-2.501070976E0,-3.741645813E-2,2.501880340E0
1.133113640E1,3.610324860E-1,-1.703248501E0,-1.016926765E-1,1.744058861E0
1.133934305E1,1.663346291E-1,-1.296900749E0,1.093389034E0,1.704440771E0
1.134755709E1,4.290542603E-1,-1.220115662E0,1.036884785E-1,1.297505717E0
1.135577109E1,6.061449051E-1,-8.377442360E-1,5.890359879E-1,1.190038002E0
1.136400274E1,3.600492477E-1,-7.308721542E-1,6.921987534E-1,1.069087780E0
1.137223039E1,1.301550865E-2,-4.741487503E-1,3.831675053E-1,6.097571467E-1
1.138043693E1,-5.780162811E-1,-4.452400208E-1,4.504334927E-1,8.574566045E-1
1.138864639E1,-3.911058903E-1,-5.494174957E-1,7.616827488E-1,1.017341640E0
1.139685386E1,-7.002267838E-1,-7.620716095E-1,7.969915867E-1,1.306241278E0
1.140507755E1,-7.042839527E-1,-8.387136459E-1,6.573190689E-1,1.277311561E0
1.141328439E1,-1.083599567E0,-7.774686813E-1,4.606909752E-1,1.410986090E0
1.142149243E1,-8.561532497E-1,-6.201419830E-1,3.981704712E-1,1.129652243E0
1.142971893E1,-5.606374741E-1,-7.809743881E-1,8.993548155E-1,1.316462858E0
1.143793370E1,-4.103152752E-1,-5.825824738E-1,-2.809317112E-1,7.659527336E-1
1.144617209E1,-4.303915501E-1,-2.646303177E-1,-2.121026516E-1,5.479540366E-1
1.145440089E1,-3.382115364E-1,2.863988876E-1,-7.066090107E-1,8.340909184E-1
1.146264197E1,-5.272409916E-1,7.612447739E-1,-1.249057293E0,1.554870024E0
1.147086178E1,-8.343353271E-1,8.717088699E-1,-1.619639874E0,2.019709165E0
1.147907055E1,-1.070595026E0,5.971479416E-1,-1.452691317E0,1.900808101E0
1.148731878E1,-1.378158331E0,4.341592789E-1,-2.255114079E0,2.678311814E0
1.149552689E1,-9.763796329E-1,3.020458221E-1,-2.290686369E0,2.508344655E0
1.150373536E1,-7.496833801E-1,9.926605225E-2,-2.369319916E0,2.487077760E0
1.151196113E1,-5.589323044E-1,1.224374771E-1,-2.067255020E0,2.144980087E0
1.152017743E1,-2.789223194E-1,1.152048111E-1,-1.679651976E0,1.706546386E0
1.152841855E1,-3.834056854E-2,2.766199112E-1,-1.095058322E0,1.130106766E0
1.153664809E1,1.319746971E-1,7.690258026E-1,-3.565839529E-1,8.578870096E-1
1.154485643E1,4.987668991E-1,1.213998795E0,-3.386068344E-2,1.312900620E0
1.155308343E1,8.438739777E-1,1.666578293E0,5.021355152E-1,1.934359473E0
1.156129351E1,8.949847221E-1,1.875066757E0,4.313334227E-1,2.122008840E0
1.156952112E1,1.249726295E0,1.955092430E0,-2.227870226E-1,2.331059047E0
1.157773070E1,1.461534023E0,2.061803818E0,-9.366314411E-1,2.695254188E0
1.158594005E1,1.461138248E0,2.059793472E0,-1.419943333E0,2.897225086E0
1.159419124E1,1.379302025E0,1.912691116E0,-1.466565490E0,2.776990407E0
1.160240878E1,1.149459362E0,1.613088608E0,-7.741608620E-1,2.126649177E0
1.161062432E1,7.928695679E-1,1.118273735E0,1.794879436E-1,1.382531815E0
1.161885382E1,4.837012291E-1,5.294580460E-1,7.465411425E-1,1.035189055E0
1.162706251E1,2.139902115E-1,1.969242096E-2,7.747132182E-1,8.039652807E-1
1.163530001E1,-1.511726379E-1,-4.715824127E-2,4.643380642E-1,4.905985161E-1
1.164350689E1,-5.547001362E-1,8.477115631E-2,1.066386700E-1,5.711831545E-1
1.165175036E1,-8.329217434E-1,2.949056625E-1,-1.546374559E-1,8.970176828E-1
1.165995643E1,-9.690005779E-1,5.741701126E-1,-1.556893587E-1,1.137045564E0
1.166816428E1,-8.284475803E-1,7.795410156E-1,-1.138329506E-1,1.143226806E0
1.167639005E1,-1.045591116E0,1.180456161E0,-6.719040871E-2,1.578370071E0
1.168460647E1,-1.157232523E0,1.249546051E0,1.218769550E-1,1.707456131E0
1.169284286E1,-1.457812309E0,1.211910248E0,5.203790069E-1,1.965893560E0
1.170107074E1,-1.650397778E0,1.177775383E0,8.747391701E-1,2.208197521E0
1.170931201E1,-1.641980410E0,9.919843674E-1,9.064732790E-1,2.121750800E0
1.171753078E1,-1.654101610E0,8.481302261E-1,1.130804777E0,2.175797891E0
1.172573936E1,-1.590119839E0,7.110614777E-1,1.287181020E0,2.165854220E0
1.173397697E1,-1.728594065E0,7.420244217E-1,1.161259174E0,2.210692324E0
1.174218551E1,-1.313444138E0,6.988344193E-1,9.249755144E-1,1.751880347E0
1.175039370E1,-7.869663239E-1,5.242910385E-1,6.930328608E-1,1.172387152E0
1.175862493E1,-9.015202522E-2,1.894979477E-1,4.702392817E-1,5.149386777E-1
1.176683843E1,3.063585758E-1,6.388950348E-2,5.471327305E-1,6.303107729E-1
1.177507524E1,7.039229870E-1,-2.826194763E-1,4.729755521E-1,8.939167818E-1
1.178330308E1,1.211320400E0,-7.240390778E-1,4.063426256E-1,1.468551677E0
1.179150928E1,1.481085539E0,-1.146160126E0,4.527363181E-1,1.926724573E0
1.179972008E1,1.698359728E0,-1.490082264E0,6.375806928E-1,2.347611565E0
1.180792616E1,2.039720297E0,-1.954907894E0,7.953571081E-1,2.935083763E0
1.181616982E1,1.910978556E0,-2.100399971E0,7.363721728E-1,2.933558088E0
1.182437739E1,1.709712744E0,-2.056734562E0,7.854889631E-1,2.787519979E0
1.183258497E1,1.762643814E0,-2.102579594E0,7.238062620E-1,2.837542893E0
1.184081116E1,1.629057646E0,-1.943282604E0,7.054994106E-1,2.632091471E0
1.184902497E1,1.830497503E0,-1.860489368E0,6.145004034E-1,2.681371393E0
1.185726170E1,1.842201471E0,-1.676066399E0,5.022619367E-1,2.540703030E0
1.186549047E1,1.776136637E0,-1.385901451E0,3.559897840E-1,2.280814089E0
1.187369993E1,1.897307158E0,-1.326684952E0,-8.851420879E-2,2.316830200E0
1.188191782E1,1.905719280E0,-1.063344002E0,-7.923522592E-2,2.183745558E0
1.189012505E1,2.023290634E0,-9.596729279E-1,8.771634102E-2,2.241064764E0
1.189837162E1,2.030767202E0,-8.986749649E-1,4.792147875E-1,2.271844831E0
1.190658212E1,1.812946796E0,-8.479824066E-1,7.760879993E-1,2.146663185E0
1.191479185E1,1.629289627E0,-1.000963211E0,1.173997641E0,2.243832101E0
1.192302235E1,1.185832262E0,-1.029052734E0,1.439942360E0,2.130394725E0
1.193123862E1,8.925619125E-1,-1.092573166E0,1.482260346E0,2.046332970E0
1.193947205E1,8.783371449E-1,-1.311184883E0,1.166869879E0,1.962719351E0
1.194769932E1,4.531853199E-1,-1.283761024E0,1.248649359E0,1.847307371E0
1.195593716E1,2.928900719E-1,-1.344944000E0,1.162094712E0,1.801422515E0
1.196415570E1,2.911174297E-1,-1.432165146E0,1.017294407E0,1.780655574E0
1.197236247E1,6.334459782E-2,-1.315770149E0,1.281532645E0,1.837821957E0
1.198060635E1,-1.710746288E-1,-1.294258118E0,1.627145052E0,2.086137969E0
1.198881343E1,-3.032836914E-1,-1.334194183E0,1.566231966E0,2.079696537E0
1.199702028E1,-5.013064146E-1,-1.499643326E0,9.847449660E-1,1.862783099E0
1.200524389E1,-4.400147200E-1,-1.170552254E0,6.847400665E-1,1.425718938E0
1.201345920E1,-9.437954426E-2,-7.159690857E-1,6.514797211E-1,9.725970682E-1
1.202169758E1,-1.620272398E-1,-4.281930923E-1,6.151512861E-1,7.668202238E-1
1.202992793E1,-1.604111195E-1,-2.310256958E-1,3.880774677E-1,4.792793760E-1
1.203813735E1,-2.411452532E-1,5.281352997E-2,2.977189422E-1,3.867516911E-1
1.204636051E1,-2.288771868E-1,1.794090271E-1,8.962184191E-2,3.043097767E-1
1.205456939E1,-3.109421134E-1,4.169502258E-1,9.021708369E-2,5.278935602E-1
1.206281343E1,-6.609921455E-1,6.865072250E-1,2.209809124E-1,9.782818357E-1
1.207102093E1,-9.497233033E-1,7.535381317E-1,2.637804151E-1,1.240715187E0
1.207922812E1,-9.699867964E-1,4.461193085E-1,3.542079628E-1,1.124882262E0
1.208745716E1,-1.036993504E0,3.986167908E-1,4.920095205E-1,1.215040839E0
1.209567197E1,-1.105562091E0,3.570823669E-1,5.963877439E-1,1.305930203E0
1.210390682E1,-1.073156714E0,2.353038788E-1,7.165374756E-1,1.311662763E0
1.211213439E1,-9.381606579E-1,1.958227158E-1,9.533979893E-1,1.351835671E0
1.212034228E1,-6.645394564E-1,1.331892014E-1,1.108038068E0,1.298884295E0
1.212856285E1,-1.882054508E-1,-7.965564728E-2,1.138674855E0,1.156869370E0
1.213676978E1,-2.019551396E-2,-1.628580093E-1,1.198193789E0,1.209379570E0
1.214501458E1,-7.043540478E-2,-1.954698563E-1,1.196535110E0,1.214440563E0
1.215322270E1,-1.832225919E-1,-2.230339050E-1,1.157572389E0,1.193016545E0
1.216143174E1,-2.661804259E-1,-2.239637375E-1,1.000801563E0,1.059535532E0
1.216965778E1,-3.151604235E-1,-2.341823578E-1,9.977266788E-1,1.072206135E0
1.217787320E1,-5.448873639E-1,-1.986274719E-1,1.121569037E0,1.262644929E0
1.218611297E1,-6.690251827E-1,-2.202367783E-1,1.172039628E0,1.367397464E0
1.219434154E1,-8.142409921E-1,-2.774982452E-1,1.305264831E0,1.563237009E0
1.220258201E1,-9.783656597E-1,-3.080234528E-1,1.336104274E0,1.684414570E0
1.221080193E1,-1.003343940E0,-3.908348083E-1,1.404435754E0,1.769714863E0
1.221901035E1,-9.640532136E-1,-5.020818710E-1,1.243602872E0,1.651675787E0
1.222725828E1,-8.273808956E-1,-5.700092316E-1,1.028084993E0,1.437507713E0
1.223546739E1,-6.463834047E-1,-6.527709961E-1,6.971998811E-1,1.153260228E0
1.224367562E1,-5.312246084E-1,-7.641677856E-1,7.195287347E-1,1.176381566E0
1.225190604E1,-4.067141712E-1,-6.982488632E-1,5.223205090E-1,9.621780532E-1
1.226012031E1,-3.260446489E-1,-3.066444397E-1,7.403394580E-2,4.536705309E-1
1.226835616E1,-2.944803536E-1,-9.926319122E-2,-1.488772035E-2,3.111165441E-1
1.227658401E1,-2.851464748E-1,7.758140564E-3,-1.621366292E-1,3.281112424E-1
1.228479270E1,-1.678781807E-1,1.106700897E-1,-9.151387215E-2,2.209202144E-1
1.229301543E1,-5.043041706E-2,9.152793884E-2,-2.491164505E-1,2.701473607E-1
1.230122604E1,-8.602872491E-2,7.477092743E-2,-1.938042343E-1,2.248370839E-1
1.230947389E1,-1.465544701E-1,-1.618003845E-2,-1.797789633E-1,2.325091009E-1
1.231768412E1,-4.364199936E-1,-1.500883102E-1,1.676915288E-1,4.910288795E-1
1.232589393E1,-1.182775497E0,-5.234489441E-1,-5.774715543E-1,1.416485111E0
1.233412093E1,-5.142464042E-1,-6.291103363E-1,7.279549837E-1,1.090938879E0
1.234233651E1,-7.300056219E-1,-5.698232651E-1,1.030517578E0,1.385486644E0
1.235056758E1,-9.973402023E-1,-5.950498581E-1,1.165439725E0,1.645302879E0
1.235879589E1,-7.361744046E-1,-5.256032944E-1,1.007357836E0,1.353876430E0
1.236700393E1,-3.560459018E-1,-4.548225403E-1,6.319839954E-1,8.561752144E-1
1.237521701E1,-2.224123478E-2,-2.985534668E-1,1.473647356E-2,2.997432380E-1
1.238342466E1,3.285187483E-2,-3.124713898E-1,-5.020881891E-1,5.922922967E-1
1.239166289E1,2.419066429E-2,-2.591428757E-1,-6.763628721E-1,7.247116344E-1
1.239987112E1,1.061469913E-1,-2.797431946E-1,-7.070115805E-1,7.677166232E-1
1.240807920E1,7.472246885E-2,-3.286781311E-1,-6.786509752E-1,7.577465984E-1
1.241630174E1,-2.224469185E-2,-3.819875717E-1,-5.114525557E-1,6.387433350E-1
1.242451678E1,-1.206827164E-1,-4.588947296E-1,-4.259283841E-1,6.376234620E-1
1.243274678E1,-1.358307004E-1,-5.475568771E-1,-3.788722754E-1,6.795680348E-1
1.244097474E1,-2.121178508E-1,-6.433010101E-1,-3.261240721E-1,7.517892541E-1
1.244921531E1,-1.154958606E-1,-6.671991348E-1,-1.568723768E-1,6.950560567E-1
1.245743331E1,-1.642001271E-1,-6.863336563E-1,-1.331353486E-1,7.181508132E-1
1.246564001E1,-1.326911449E-1,-6.097421646E-1,-6.181636453E-2,6.270675483E-1
1.247388547E1,-1.671215296E-1,-5.021162033E-1,6.346642971E-2,5.329899389E-1
1.248209204E1,-2.145707011E-1,-3.347311020E-1,1.649028659E-1,4.304398350E-1
1.249029839E1,-4.489945173E-1,-1.123170853E-1,4.178497791E-1,6.235460225E-1
1.249852158E1,-6.664869785E-1,9.368419647E-2,6.980458498E-1,9.696646996E-1
1.250673643E1,-7.576085925E-1,2.591342926E-1,8.771875501E-1,1.187678138E0
1.251497251E1,-1.076469541E0,5.255022049E-1,9.659009576E-1,1.538799499E0
1.252320078E1,-1.327740431E0,7.720470428E-1,8.662846088E-1,1.763349175E0
1.253140954E1,-1.528105497E0,9.852685928E-1,6.444044709E-1,1.929019889E0
1.253963285E1,-1.702117682E0,1.174729347E0,2.920988202E-1,2.088663535E0
1.254784112E1,-1.942769527E0,1.280595779E0,8.771511167E-2,2.328513029E0
1.255608662E1,-2.063023329E0,1.264512062E0,-6.361899525E-2,2.420558487E0
1.256429378E1,-2.318531513E0,1.243743896E0,-4.218795151E-2,2.631400213E0
1.257249966E1,-2.464951277E0,1.208616257E0,7.960078120E-2,2.746465790E0
1.258072820E1,-2.746032476E0,1.029834747E0,1.765265614E-1,2.938097275E0
1.258894285E1,-2.888854980E0,7.217645645E-1,1.834700257E-1,2.983301600E0
1.259717231E1,-2.994805336E0,3.730173111E-1,1.460708529E-1,3.021479374E0
1.260540047E1,-2.881309509E0,9.847450256E-2,-1.222461835E-2,2.883017717E0
1.261360893E1,-2.663844824E0,-2.071695328E-1,-1.609475315E-1,2.676731695E0
1.262182712E1,-2.170648098E0,-4.074535370E-1,-3.287518322E-1,2.232892590E0
1.263003350E1,-1.659081936E0,-5.405731201E-1,-4.804610014E-1,1.809866001E0
1.263827862E1,-9.454696774E-1,-5.729045868E-1,-6.131401658E-1,1.264149295E0
1.264648708E1,-3.271535039E-1,-5.546150208E-1,-9.050431252E-1,1.110734124E0
1.265469697E1,-5.198693871E-1,-4.041538239E-1,-1.119292378E0,1.298622317E0
1.266292562E1,-4.129559398E-1,-2.941713333E-1,-1.123696923E0,1.232787150E0
1.267114077E1,-8.510232568E-1,-4.498882294E-1,-4.356174469E-1,1.056599528E0
1.267937897E1,-6.965315342E-1,-3.714380264E-1,-1.792126596E-1,8.094686918E-1
1.268760658E1,-5.261384249E-1,-3.366136551E-1,1.889137924E-2,6.248898136E-1
1.269584754E1,-4.796919227E-1,-3.620738983E-1,2.386012524E-1,6.466315846E-1
1.270406674E1,-5.379828811E-1,-5.100469589E-1,4.142526388E-1,8.492224263E-1
1.271227554E1,-5.289996266E-1,-7.230110168E-1,5.346826911E-1,1.043298191E0
1.272051412E1,-4.581373930E-1,-7.805757523E-1,6.249642372E-1,1.099894847E0
1.272872193E1,-5.535531640E-1,-6.703882217E-1,6.867630482E-1,1.107919202E0
1.273692943E1,-7.459864616E-1,-2.531404495E-1,8.411888480E-1,1.152464562E0
1.274516104E1,-1.088409066E0,1.722564697E-1,1.228025675E0,1.649955649E0
1.275337770E1,-1.293159723E0,6.059236526E-1,1.548177719E0,2.106243052E0
1.276161600E1,-1.207784176E0,6.550722122E-1,1.444788456E0,1.993809394E0
1.276984389E1,-7.657699585E-1,3.530673981E-1,6.576511860E-1,1.069376126E0
1.277805262E1,-1.597050428E-1,-2.755928040E-2,-4.575375617E-1,4.853924546E-1
1.278626770E1,2.183355093E-1,-2.050294876E-1,-1.279976130E0,1.314551778E0
1.279447600E1,5.871418715E-1,-2.637205124E-1,-1.633313894E0,1.755562122E0
1.280271285E1,6.719028354E-1,-2.444715500E-1,-1.562710881E0,1.718512455E0
1.281092193E1,6.277415752E-1,-1.541652679E-1,-1.173488140E0,1.339739090E0
1.281913166E1,6.288029552E-1,5.768680573E-2,-6.654154062E-1,9.173323208E-1
1.282735162E1,6.999655962E-1,2.453117371E-1,-2.143740058E-1,7.720659937E-1
1.283556785E1,7.334821224E-1,4.568023682E-1,1.263679266E-1,8.732887726E-1
1.284379870E1,6.719365716E-1,6.108427048E-1,3.776602745E-1,9.834911536E-1
1.285202700E1,5.635154843E-1,7.049779892E-1,5.255279541E-1,1.044376990E0
1.286023520E1,4.776545167E-1,6.313800812E-1,5.604875088E-1,9.700210780E-1
1.286844889E1,4.072904587E-1,5.048999786E-1,4.834136963E-1,8.090106970E-1
1.287665724E1,3.691347837E-1,3.685865402E-1,2.862028778E-1,5.950030365E-1
1.288490585E1,3.809100389E-1,2.345008850E-1,-3.015080094E-2,4.483215293E-1
1.289311597E1,4.095360041E-1,1.673831940E-1,-3.995836973E-1,5.961577001E-1
1.290132454E1,3.747295141E-1,9.314823151E-2,-7.467390299E-1,8.406652012E-1
1.290955393E1,3.675504923E-1,-1.216793060E-2,-9.144523144E-1,9.856289658E-1
1.291776943E1,3.903723955E-1,-1.031236649E-1,-8.763033748E-1,9.648485384E-1
1.292599996E1,4.269025922E-1,-1.390228271E-1,-6.748054028E-1,8.105155774E-1
1.293422866E1,4.631279707E-1,-8.391284943E-2,-4.270231128E-1,6.355136681E-1
1.294247047E1,4.633036852E-1,2.870845795E-2,-1.372826397E-1,4.840671477E-1
1.295069089E1,4.583675861E-1,1.533517838E-1,1.520694494E-1,5.066978696E-1
1.295889996E1,4.665141106E-1,2.659969330E-1,4.011207819E-1,6.702892401E-1
1.296714697E1,5.209771395E-1,2.899742126E-1,5.997471213E-1,8.456942907E-1
1.297535400E1,5.826641917E-1,2.731447220E-1,6.821237803E-1,9.377624705E-1
1.298356250E1,6.639722586E-1,2.516155243E-1,6.590441465E-1,9.687665969E-1
1.299178962E1,6.571475863E-1,1.771688461E-1,5.060046315E-1,8.480993087E-1
1.300000612E1,6.041194797E-1,9.308147430E-2,2.381294072E-1,6.559955191E-1
1.300824650E1,4.659780860E-1,9.049892426E-2,-2.986621857E-2,4.756234045E-1
1.301647562E1,1.671896577E-1,1.550874710E-1,-2.438559532E-1,3.338715789E-1
1.302468454E1,-6.339603662E-2,2.078809738E-1,-2.946297526E-1,3.661150746E-1
1.303290723E1,-1.671570539E-1,2.257003784E-1,-2.121657729E-1,3.519892849E-1
1.304111616E1,-2.143983841E-1,1.930389404E-1,-1.426913738E-1,3.218563776E-1
1.304936535E1,-3.235039115E-1,1.532068253E-1,-4.394829273E-2,3.606363327E-1
1.305757404E1,-2.218301296E-1,2.245426178E-2,3.025090694E-2,2.250064836E-1
1.306578312E1,-4.490737319E-1,4.488945007E-3,-2.424257994E-2,4.497500083E-1
1.307401312E1,-5.992236137E-1,-1.803207397E-2,-6.023710966E-2,6.025135719E-1
1.308222943E1,-6.478468776E-1,-5.484008789E-2,-4.874324799E-2,6.519884326E-1
1.309046743E1,-6.672814488E-1,-7.717609406E-2,-5.306398869E-2,6.738222825E-1
1.309869693E1,-5.885611176E-1,-1.113977432E-1,-1.059764624E-2,5.991042952E-1
1.310690731E1,-5.746300817E-1,-1.047830582E-1,-1.597183943E-2,5.843238141E-1
1.311512808E1,-5.374227762E-1,-8.973217010E-2,-5.804842710E-2,5.479459122E-1
1.312333866E1,-4.863916039E-1,-3.382682800E-2,-5.366843939E-2,4.905113129E-1
1.313158566E1,-4.877101183E-1,4.141139984E-2,-6.835454702E-2,4.942149407E-1
1.313979523E1,-5.485076308E-1,1.025180817E-1,-6.794482470E-2,5.621272786E-1
1.314800516E1,-4.925299287E-1,7.995510101E-2,-7.913374901E-2,5.052135183E-1
1.315623254E1,-4.966843724E-1,3.838062286E-2,-9.266805649E-2,5.067107723E-1
1.316445023E1,-4.466619492E-1,3.277301788E-2,-8.042019606E-2,4.550256866E-1
1.317268973E1,-4.436088204E-1,4.749107361E-2,-2.450257540E-2,4.468160291E-1
1.318092016E1,-4.574056268E-1,1.919841766E-2,1.566869020E-2,4.580764068E-1
1.318916189E1,-4.663641453E-1,2.935409546E-3,5.853503942E-2,4.700324281E-1
1.319738239E1,-3.900336623E-1,-2.172374725E-2,1.356965899E-1,4.135356617E-1
1.320559046E1,-3.291561007E-1,-6.805324554E-2,1.906407475E-1,3.864180088E-1
1.321383585E1,-3.503252268E-1,-9.531211853E-2,2.904398441E-1,4.649381330E-1
1.322204539E1,-3.775601387E-1,-1.298885345E-1,3.610501885E-1,5.383121106E-1
1.323025373E1,-3.313845992E-1,-1.556415558E-1,4.184701443E-1,5.560191617E-1
1.323848439E1,-3.362488151E-1,-1.741867065E-1,4.957081974E-1,6.238035679E-1
1.324669862E1,-3.517265320E-1,-1.639862061E-1,6.072359681E-1,7.206514761E-1
1.325493458E1,-3.462818861E-1,-2.184057236E-1,6.017436981E-1,7.278101971E-1
1.326316281E1,-3.463155031E-1,-2.296648026E-1,6.377742290E-1,7.612071443E-1
1.327136927E1,-3.921735287E-1,-2.097597122E-1,6.451820135E-1,7.836191958E-1
1.327958858E1,-4.598594904E-1,-1.826562881E-1,6.522940397E-1,8.187316928E-1
1.328779454E1,-4.917340279E-1,-1.195898056E-1,6.856873631E-1,8.522154867E-1
1.329603850E1,-5.980349183E-1,-8.289241791E-2,6.224719286E-1,8.671725424E-1
1.330424573E1,-6.758006811E-1,-1.227731705E-1,5.065068007E-1,8.534219068E-1
1.331245416E1,-7.230728269E-1,-8.609962463E-2,4.257389307E-1,8.435052433E-1
1.332067820E1,-8.428643346E-1,-1.261997223E-1,3.576809168E-1,9.242739284E-1
1.332889342E1,-8.757647276E-1,-2.116661072E-1,3.017355204E-1,9.501635245E-1
1.333713320E1,-8.135155439E-1,-3.912315369E-1,2.538514733E-1,9.377154292E-1
