"Time (s)","Gyroscope x (rad/s)","Gyroscope y (rad/s)","Gyroscope z (rad/s)","Absolute (rad/s)"
6.328807000E-3,-7.452555746E-2,9.407325089E-2,-1.044579595E-1,1.591078268E-1
8.518043000E-3,-9.712757170E-2,1.142318025E-1,-1.569923609E-1,2.170927712E-1
1.061596600E-2,-1.038470939E-1,1.221730486E-1,-1.685988009E-1,2.326715031E-1
1.257535100E-2,-1.191187203E-1,1.258382350E-1,-1.881465018E-1,2.557804470E-1
1.442092300E-2,-1.295034289E-1,1.221730486E-1,-2.070833147E-1,2.730950221E-1
1.664427400E-2,-1.362229437E-1,1.148426682E-1,-2.168571651E-1,2.806644952E-1
1.860988400E-2,-1.380555481E-1,1.130100712E-1,-2.186897546E-1,2.822336254E-1
2.074781300E-2,-1.435533315E-1,1.099557430E-1,-2.266310006E-1,2.899300516E-1
2.262569200E-2,-1.514945775E-1,1.111774743E-1,-2.284636050E-1,2.958152407E-1
2.489465900E-2,-1.563815027E-1,1.087340117E-1,-2.272418737E-1,2.965082273E-1
2.677519200E-2,-1.594358236E-1,1.117883399E-1,-2.272418737E-1,2.992578887E-1
2.895527400E-2,-1.643227488E-1,1.099557430E-1,-2.284636050E-1,3.021387926E-1
3.109831300E-2,-1.679879427E-1,1.117883399E-1,-2.302961946E-1,3.061909846E-1
3.299996600E-2,-1.716531366E-1,1.166752651E-1,-2.296853364E-1,3.095694923E-1
3.484980700E-2,-1.692096740E-1,1.356120855E-1,-2.357939780E-1,3.203456751E-1
3.706831300E-2,-1.618792862E-1,1.777617931E-1,-2.510656118E-1,3.476177496E-1
3.894834600E-2,-1.679879427E-1,1.826487035E-1,-2.528982162E-1,3.543134284E-1
4.117138900E-2,-1.795943826E-1,1.765400618E-1,-2.467895597E-1,3.525983870E-1
4.307546100E-2,-1.857030392E-1,1.777617931E-1,-2.290744632E-1,3.443254036E-1
4.531708200E-2,-1.899790913E-1,2.052507252E-1,-2.260201424E-1,3.595900723E-1
4.720607700E-2,-1.899790913E-1,2.095267773E-1,-2.241875380E-1,3.609066053E-1
4.937735100E-2,-2.040289938E-1,2.040289938E-1,-2.107485086E-1,3.573102217E-1
5.147558200E-2,-2.138028294E-1,1.960877478E-1,-1.863138974E-1,3.447824286E-1
5.343812000E-2,-2.199114859E-1,2.046398520E-1,-1.637118906E-1,3.421112594E-1
5.528384600E-2,-2.186897546E-1,2.138028294E-1,-1.527163088E-1,3.418466463E-1
5.750573600E-2,-2.217440903E-1,2.345722616E-1,-1.368338168E-1,3.505967497E-1
5.939942300E-2,-2.113593817E-1,2.583959997E-1,-1.233947799E-1,3.559038530E-1
6.160835100E-2,-2.150245607E-1,2.687807083E-1,-1.154535338E-1,3.630539207E-1
6.349892300E-2,-2.070833147E-1,2.956587672E-1,-1.007927656E-1,3.747756495E-1
6.575373500E-2,-2.089159191E-1,3.176499307E-1,-8.796459436E-2,3.902372478E-1
6.769188400E-2,-2.089159191E-1,3.316998184E-1,-7.024950534E-2,3.982532156E-1
6.981312000E-2,-2.095267773E-1,3.414736688E-1,-6.475171447E-2,4.058306561E-1
7.195554300E-2,-2.119702399E-1,3.555235863E-1,-5.131268129E-2,4.170867946E-1
7.385531200E-2,-2.131919712E-1,3.744603992E-1,-3.848451003E-2,4.326112165E-1
7.572030700E-2,-2.119702399E-1,3.891211748E-1,-3.359758854E-2,4.443821207E-1
7.792396600E-2,-2.125810981E-1,4.306600094E-1,-3.909537569E-2,4.818580863E-1
7.982492300E-2,-2.260201424E-1,4.459316432E-1,-4.031710699E-2,5.015631609E-1
8.202719700E-2,-2.461786866E-1,4.361577928E-1,-3.054326214E-2,5.017673334E-1
8.391100000E-2,-2.608394623E-1,4.318817258E-1,-2.138028294E-2,5.049912540E-1
8.617327400E-2,-2.797762752E-1,4.276056588E-1,-7.330383174E-3,5.110529308E-1
8.805442300E-2,-2.974913716E-1,4.251621962E-1,3.665191587E-3,5.189194956E-1
9.023450500E-2,-3.078760803E-1,4.263839424E-1,1.038470957E-2,5.260216624E-1
9.233227400E-2,-3.139847219E-1,4.276056588E-1,1.221730467E-2,5.306432583E-1
9.429323500E-2,-3.194825351E-1,4.300491214E-1,1.588249579E-2,5.359697666E-1
9.616292300E-2,-3.145956099E-1,4.349360466E-1,1.282817032E-2,5.369397772E-1
9.836146600E-2,-3.188716471E-1,4.312708676E-1,9.773843922E-3,5.364412518E-1
1.002458840E-1,-3.127630055E-1,4.306600094E-1,3.054326167E-3,5.322575224E-1
1.024647350E-1,-3.090978265E-1,4.239404798E-1,-5.497787148E-3,5.246877380E-1
1.043883070E-1,-2.999348342E-1,4.105014503E-1,-1.527163107E-2,5.086310728E-1
1.066158890E-1,-2.962696552E-1,4.019493461E-1,-2.565634064E-2,4.999972332E-1
1.084983840E-1,-2.883284092E-1,3.817907870E-1,-3.970624134E-2,4.800771419E-1
1.106717740E-1,-2.809980214E-1,3.573561609E-1,-5.253441259E-2,4.576277726E-1
1.128158510E-1,-2.706133127E-1,3.329215646E-1,-6.536258012E-2,4.339822578E-1
1.147175430E-1,-2.675589919E-1,3.176499307E-1,-7.086037099E-2,4.213199317E-1
1.165798460E-1,-2.577851415E-1,2.938261926E-1,-7.696902007E-2,3.983857938E-1
1.187855430E-1,-2.461786866E-1,2.651155293E-1,-8.429940045E-2,3.714789073E-1
1.206943070E-1,-2.406809032E-1,2.480112910E-1,-8.796459436E-2,3.566155738E-1
1.228899660E-1,-2.278527319E-1,2.211332172E-1,-9.162978828E-2,3.304735773E-1
1.247838840E-1,-2.150245607E-1,1.893682331E-1,-9.651670605E-2,3.023431229E-1
1.270420040E-1,-2.034181207E-1,1.582140923E-1,-9.712757170E-2,2.753986130E-1
1.289278070E-1,-1.930334121E-1,1.466076523E-1,-9.834930301E-2,2.615880106E-1
1.311051970E-1,-1.826487035E-1,1.178969890E-1,-1.014036313E-1,2.398811066E-1
1.332040430E-1,-1.679879427E-1,9.590584040E-2,-1.044579595E-1,2.198393605E-1
1.351671970E-1,-1.582140923E-1,7.941248268E-2,-1.026253626E-1,2.046216177E-1
1.371672740E-1,-1.472185254E-1,7.024950534E-2,-1.050688252E-1,1.940302689E-1
1.392352350E-1,-1.417207420E-1,6.230825558E-2,-1.044579595E-1,1.867580058E-1
1.412215000E-1,-1.295034289E-1,5.619960278E-2,-1.001819000E-1,1.731067490E-1
1.433382740E-1,-1.270599663E-1,5.619960278E-2,-9.957103431E-2,1.709298724E-1
1.453730810E-1,-1.148426682E-1,5.558873713E-2,-9.590584040E-2,1.596147749E-1
1.474891580E-1,-1.056796908E-1,5.497787148E-2,-9.101892263E-2,1.499173362E-1
1.493780770E-1,-1.007927656E-1,5.619960278E-2,-8.857546002E-2,1.454757336E-1
1.515449660E-1,-9.407325089E-2,5.497787148E-2,-8.491026610E-2,1.381379607E-1
1.536876970E-1,-8.552113175E-2,5.558873713E-2,-7.696902007E-2,1.277818521E-1
1.555892740E-1,-7.880161703E-2,5.009094998E-2,-7.208210230E-2,1.179602797E-1
1.574521150E-1,-7.391469181E-2,4.703662544E-2,-6.902777404E-2,1.115377039E-1
1.596587350E-1,-6.475171447E-2,4.276056588E-2,-5.925392732E-2,9.763338785E-2
1.615467690E-1,-5.497787148E-2,4.031710699E-2,-5.558873713E-2,8.796671623E-2
1.637625810E-1,-4.398229718E-2,4.092797264E-2,-4.948008433E-2,7.783199956E-2
1.656571920E-1,-3.970624134E-2,3.848451003E-2,-4.642575979E-2,7.220106846E-2
1.679139660E-1,-2.871066704E-2,3.909537569E-2,-4.520402849E-2,6.630350665E-2
1.697980380E-1,-2.382374369E-2,3.970624134E-2,-3.970624134E-2,6.099788493E-2
1.719699270E-1,-1.588249579E-2,4.825835302E-2,-4.092797264E-2,6.523972144E-2
1.740673120E-1,-1.649336144E-2,5.070181563E-2,-4.031710699E-2,6.684440288E-2
1.760284270E-1,-7.330383174E-3,5.619960278E-2,-3.970624134E-2,6.920054531E-2
1.778897300E-1,-6.108652335E-3,6.597344577E-2,-4.153883830E-2,7.820029583E-2
1.800973500E-1,-4.886921961E-3,6.780604273E-2,-4.337143153E-2,8.063883996E-2
1.819856150E-1,-3.054326167E-3,7.757988572E-2,-4.398229718E-2,8.923233742E-2
1.842011200E-1,-6.108652451E-4,8.491026610E-2,-4.092797264E-2,9.426147352E-2
1.861540380E-1,0.000000000E0,8.674286306E-2,-4.276056588E-2,9.670982518E-2
1.883527350E-1,3.665191587E-3,8.918632567E-2,-4.153883830E-2,9.845359010E-2
1.902752690E-1,5.497787148E-3,8.674286306E-2,-3.848451003E-2,9.505581238E-2
1.924099660E-1,9.162978269E-3,8.429940045E-2,-3.787364438E-2,9.286959688E-2
1.945531580E-1,1.404990070E-2,8.063421398E-2,-3.543018550E-2,8.918841976E-2
1.964535040E-1,1.710422710E-2,7.819075137E-2,-3.481931984E-2,8.728535513E-2
1.982964610E-1,2.138028294E-2,7.269296050E-2,-3.359758854E-2,8.288655476E-2
2.005218890E-1,2.382374369E-2,6.536258012E-2,-2.932153270E-2,7.549562850E-2
2.024060000E-1,2.260201424E-2,6.108652428E-2,-2.748893574E-2,7.069693122E-2
2.046246580E-1,2.748893574E-2,5.192354694E-2,-2.626720630E-2,6.435574909E-2
2.064976150E-1,3.115412779E-2,3.970624134E-2,-2.015855350E-2,5.434641257E-2
2.087756200E-1,2.932153270E-2,2.871066704E-2,-1.893682219E-2,4.519577321E-2
2.106620380E-1,3.054326214E-2,2.138028294E-2,-1.893682219E-2,4.181639147E-2
2.128315040E-1,3.359758854E-2,9.773843922E-3,-1.832595654E-2,3.949894510E-2
2.149288500E-1,3.420845419E-2,-3.054326167E-3,-1.832595654E-2,3.892798389E-2
2.168923500E-1,3.237585723E-2,-1.160643995E-2,-1.710422710E-2,3.841171910E-2
2.187395000E-1,3.237585723E-2,-2.199114859E-2,-1.771509275E-2,4.296081074E-2
2.209603500E-1,3.115412779E-2,-3.237585723E-2,-1.893682219E-2,4.875837410E-2
2.228533070E-1,3.176499158E-2,-3.665191308E-2,-1.954768784E-2,5.229234669E-2
2.250626580E-1,2.871066704E-2,-3.665191308E-2,-1.954768784E-2,5.049531893E-2
2.270729610E-1,2.626720630E-2,-3.665191308E-2,-2.076941915E-2,4.964572117E-2
2.292140040E-1,2.138028294E-2,-3.298672289E-2,-2.199114859E-2,4.504276858E-2
2.311002300E-1,1.771509275E-2,-3.237585723E-2,-2.260201424E-2,4.327668761E-2
2.332702350E-1,1.038470957E-2,-3.054326214E-2,-2.382374369E-2,4.010366340E-2
2.354141960E-1,1.221730490E-3,-2.504547499E-2,-2.809980139E-2,3.766121720E-2
2.373140810E-1,-5.497787148E-3,-1.771509275E-2,-3.115412779E-2,3.625782471E-2
2.391795380E-1,-1.282817032E-2,-1.588249579E-2,-3.115412779E-2,3.724775570E-2
2.413817730E-1,-2.199114859E-2,-1.221730467E-2,-3.481931984E-2,4.295646848E-2
2.432753840E-1,-3.054326214E-2,-4.886921961E-3,-3.665191308E-2,4.795972895E-2
2.454854270E-1,-3.726277873E-2,-1.221730490E-3,-4.031710699E-2,5.491335375E-2
2.473639610E-1,-4.214970022E-2,2.443460980E-3,-4.214970022E-2,5.965873750E-2
2.496363890E-1,-4.520402849E-2,4.886921961E-3,-4.398229718E-2,6.325921801E-2
2.515219230E-1,-5.253441259E-2,1.038470957E-2,-4.948008433E-2,7.291080472E-2
2.536919270E-1,-5.497787148E-2,1.221730467E-2,-5.314527452E-2,7.743545112E-2
2.557895810E-1,-6.291911751E-2,1.771509275E-2,-5.436700583E-2,8.502006341E-2
2.577520040E-1,-6.658431143E-2,1.954768784E-2,-5.681046844E-2,8.968284090E-2
2.596400380E-1,-6.841690838E-2,2.321287990E-2,-5.864306539E-2,9.305224481E-2
2.618199660E-1,-7.147123665E-2,2.565634064E-2,-5.803219974E-2,9.557259905E-2
2.637058840E-1,-7.696902007E-2,3.054326214E-2,-5.925392732E-2,1.018241072E-1
2.659230810E-1,-7.941248268E-2,3.298672289E-2,-6.047565863E-2,1.051274064E-1
2.678274610E-1,-7.941248268E-2,3.665191308E-2,-5.986479297E-2,1.059882002E-1
2.700765040E-1,-7.941248268E-2,4.092797264E-2,-5.986479297E-2,1.075417816E-1
2.720031920E-1,-7.880161703E-2,4.703662544E-2,-6.414084882E-2,1.119651172E-1
2.741321960E-1,-7.819075137E-2,5.070181563E-2,-6.169738993E-2,1.117633018E-1
2.762756580E-1,-7.941248268E-2,5.192354694E-2,-6.047565863E-2,1.125153430E-1
2.781764270E-1,-8.002334833E-2,5.070181563E-2,-5.986479297E-2,1.120633920E-1
2.800536920E-1,-7.696902007E-2,5.131268129E-2,-5.925392732E-2,1.098555834E-1
2.822446580E-1,-7.696902007E-2,5.375614017E-2,-5.681046844E-2,1.097332310E-1
2.841475000E-1,-7.452555746E-2,5.742133409E-2,-5.619960278E-2,1.095886111E-1
2.863485040E-1,-7.452555746E-2,6.780604273E-2,-6.047565863E-2,1.175118012E-1
2.883373070E-1,-6.414084882E-2,7.391469181E-2,-6.597344577E-2,1.180251062E-1
2.904998120E-1,-6.414084882E-2,7.635815442E-2,-6.902777404E-2,1.212825207E-1
2.923721150E-1,-4.703662544E-2,1.069014147E-1,-9.101892263E-2,1.480702565E-1
2.945558880E-1,-3.115412779E-2,1.429424733E-1,-1.160643995E-1,1.867460178E-1
2.966539270E-1,-3.359758854E-2,1.374446750E-1,-1.148426682E-1,1.822324753E-1
2.986171190E-1,-3.787364438E-2,1.270599663E-1,-1.081231460E-1,1.710826195E-1
3.004607300E-1,-5.009094998E-2,1.007927656E-1,-8.918632567E-2,1.436053117E-1
3.026858880E-1,-5.558873713E-2,7.941248268E-2,-7.819075137E-2,1.245401289E-1
3.045791150E-1,-5.925392732E-2,6.352998316E-2,-7.147123665E-2,1.124954414E-1
3.067903500E-1,-6.902777404E-2,3.298672289E-2,-4.948008433E-2,9.111112018E-2
3.087801920E-1,-6.597344577E-2,1.466076635E-2,-3.176499158E-2,7.467562057E-2
3.109410040E-1,-5.497787148E-2,7.330383174E-3,-2.321287990E-2,6.012602317E-2
3.128424610E-1,-5.253441259E-2,6.108652335E-3,-2.443460934E-2,5.826002294E-2
3.149959270E-1,-3.726277873E-2,3.054326167E-3,-2.687807009E-2,4.604643568E-2
3.171385420E-1,-2.382374369E-2,-3.665191587E-3,-3.298672289E-2,4.085496640E-2
3.190391580E-1,-9.162978269E-3,-6.719517522E-3,-4.153883830E-2,4.306491813E-2
3.209376150E-1,-3.665191587E-3,-1.221730467E-2,-4.214970022E-2,4.403740900E-2
3.231076190E-1,3.054326167E-3,-2.076941915E-2,-4.337143153E-2,4.818483945E-2
3.250112690E-1,6.719517522E-3,-3.298672289E-2,-4.581489414E-2,5.685314703E-2
3.272107730E-1,1.160643995E-2,-3.909537569E-2,-4.642575979E-2,6.179408564E-2
3.291424610E-1,1.404990070E-2,-5.070181563E-2,-4.459316283E-2,6.896828249E-2
3.313613110E-1,1.588249579E-2,-5.497787148E-2,-4.092797264E-2,7.035566054E-2
3.333482730E-1,1.771509275E-2,-6.230825558E-2,-3.970624134E-2,7.597847607E-2
3.354170040E-1,1.954768784E-2,-6.414084882E-2,-3.848451003E-2,7.731247053E-2
3.375145810E-1,1.893682219E-2,-6.719517708E-2,-3.726277873E-2,7.913475681E-2
3.394732340E-1,1.710422710E-2,-6.780604273E-2,-3.481931984E-2,7.811913370E-2
3.413472300E-1,1.527163107E-2,-6.902777404E-2,-3.665191308E-2,7.963302729E-2
3.435414270E-1,1.649336144E-2,-6.780604273E-2,-3.359758854E-2,7.744990870E-2
3.455138840E-1,1.649336144E-2,-6.963863969E-2,-3.787364438E-2,8.096903141E-2
3.476445810E-1,1.710422710E-2,-7.391469181E-2,-3.909537569E-2,8.534860660E-2
3.495295760E-1,1.710422710E-2,-7.513642311E-2,-4.153883830E-2,8.754148588E-2
3.517953880E-1,1.588249579E-2,-7.941248268E-2,-4.214970022E-2,9.129727984E-2
3.536631150E-1,2.015855350E-2,-7.941248268E-2,-4.459316283E-2,9.328054382E-2
3.558505040E-1,1.893682219E-2,-8.491026610E-2,-4.703662544E-2,9.889793050E-2
3.579931960E-1,1.954768784E-2,-8.857546002E-2,-4.825835302E-2,1.027452814E-1
3.598936190E-1,1.954768784E-2,-8.918632567E-2,-4.825835302E-2,1.032723652E-1
3.617170380E-1,1.954768784E-2,-9.162978828E-2,-5.192354694E-2,1.071176219E-1
3.639603110E-1,2.321287990E-2,-9.224065393E-2,-5.253441259E-2,1.086602068E-1
3.658303460E-1,1.954768784E-2,-9.101892263E-2,-5.681046844E-2,1.090595512E-1
3.680622730E-1,2.382374369E-2,-9.346238524E-2,-5.803219974E-2,1.125634240E-1
3.699076920E-1,2.199114859E-2,-9.040805697E-2,-5.864306539E-2,1.099828919E-1
3.722117340E-1,2.321287990E-2,-9.101892263E-2,-6.047565863E-2,1.117165492E-1
3.740610380E-1,2.260201424E-2,-8.979719132E-2,-5.681046844E-2,1.086361631E-1
3.762731960E-1,2.260201424E-2,-9.224065393E-2,-5.619960278E-2,1.103520939E-1
3.783706960E-1,1.893682219E-2,-9.040805697E-2,-5.253441259E-2,1.062642203E-1
3.803323880E-1,1.710422710E-2,-9.040805697E-2,-5.375614017E-2,1.065640369E-1
3.821435380E-1,1.343903504E-2,-9.040805697E-2,-5.314527452E-2,1.057291097E-1
3.844007730E-1,1.221730467E-2,-8.491026610E-2,-4.703662544E-2,9.783383850E-2
3.863516920E-1,1.160643995E-2,-8.368854225E-2,-4.948008433E-2,9.791200282E-2
3.885036570E-1,9.162978269E-3,-7.757988572E-2,-4.581489414E-2,9.056270405E-2
3.903677690E-1,6.108652335E-3,-6.719517708E-2,-3.604105115E-2,7.649486796E-2
3.926548500E-1,3.665191587E-3,-6.230825558E-2,-2.565634064E-2,6.748333245E-2
3.945345760E-1,2.443460980E-3,-5.619960278E-2,-1.954768784E-2,5.955231276E-2
3.967116190E-1,6.108652451E-4,-5.681046844E-2,-1.343903504E-2,5.838159079E-2
3.988551190E-1,-7.941247895E-3,-5.619960278E-2,-4.886921961E-3,5.696789251E-2
4.007561570E-1,-8.552113548E-3,-5.314527452E-2,-6.108652451E-4,5.383244381E-2
4.025969990E-1,-1.771509275E-2,-4.886921868E-2,7.941247895E-3,5.258410847E-2
4.048245030E-1,-2.321287990E-2,-4.703662544E-2,1.527163107E-2,5.463062000E-2
4.067091150E-1,-3.176499158E-2,-4.214970022E-2,2.015855350E-2,5.649760347E-2
4.089281190E-1,-3.604105115E-2,-4.092797264E-2,2.076941915E-2,5.835602012E-2
4.107919990E-1,-3.909537569E-2,-3.115412779E-2,2.382374369E-2,5.537688003E-2
4.130793880E-1,-4.581489414E-2,-2.138028294E-2,2.321287990E-2,5.563235405E-2
4.149540380E-1,-5.192354694E-2,-1.038470957E-2,2.015855350E-2,5.665919342E-2
4.171344650E-1,-5.619960278E-2,-5.497787148E-3,1.832595654E-2,5.936717695E-2
4.192321570E-1,-5.803219974E-2,6.108652451E-4,1.160643995E-2,5.918461634E-2
4.211932340E-1,-5.925392732E-2,3.054326167E-3,5.497787148E-3,5.958676426E-2
4.230279230E-1,-5.925392732E-2,-6.108652451E-4,3.665191587E-3,5.937031825E-2
4.252610800E-1,-6.230825558E-2,0.000000000E0,-6.719517522E-3,6.266953510E-2
4.271607300E-1,-6.291911751E-2,-9.773843922E-3,-1.466076635E-2,6.533973862E-2
4.293645420E-1,-6.352998316E-2,-1.343903504E-2,-2.382374369E-2,6.916818045E-2
4.312460380E-1,-6.536258012E-2,-1.649336144E-2,-2.748893574E-2,7.280068296E-2
4.335161190E-1,-6.291911751E-2,-2.504547499E-2,-3.787364438E-2,7.759190747E-2
4.353884230E-1,-6.536258012E-2,-2.993239649E-2,-4.886921868E-2,8.692764677E-2
4.375716190E-1,-6.352998316E-2,-3.115412779E-2,-5.131268129E-2,8.740497526E-2
4.397153490E-1,-6.414084882E-2,-4.337143153E-2,-5.986479297E-2,9.787197248E-2
4.416158880E-1,-6.414084882E-2,-5.192354694E-2,-6.902777404E-2,1.075868803E-1
4.434770760E-1,-6.169738993E-2,-5.864306539E-2,-7.574728876E-2,1.139439722E-1
4.456850800E-1,-5.986479297E-2,-6.475171447E-2,-8.063421398E-2,1.194924869E-1
4.475791530E-1,-5.742133409E-2,-7.574728876E-2,-8.674286306E-2,1.286824994E-1
4.497884650E-1,-5.558873713E-2,-8.307767659E-2,-9.162978828E-2,1.356024563E-1
4.516699610E-1,-5.436700583E-2,-9.590584040E-2,-9.896016866E-2,1.481445798E-1
4.539405030E-1,-5.192354694E-2,-1.020144969E-1,-9.834930301E-2,1.509158630E-1
4.558088460E-1,-4.948008433E-2,-1.111774743E-1,-1.026253626E-1,1.591875453E-1
4.579958880E-1,-4.581489414E-2,-1.252273768E-1,-1.050688252E-1,1.697655986E-1
4.600941190E-1,-4.459316283E-2,-1.307251602E-1,-1.062905490E-1,1.742851070E-1
4.620583880E-1,-4.031710699E-2,-1.453859210E-1,-1.117883399E-1,1.877742477E-1
4.639138840E-1,-4.092797264E-2,-1.539380401E-1,-1.221730486E-1,2.007442974E-1
4.661273490E-1,-4.214970022E-2,-1.624901593E-1,-1.313360333E-1,2.131403358E-1
4.680634990E-1,-4.459316283E-2,-1.643227488E-1,-1.362229437E-1,2.180532190E-1
4.702318880E-1,-4.948008433E-2,-1.692096740E-1,-1.508837193E-1,2.320476013E-1
4.721611920E-1,-5.742133409E-2,-1.722639948E-1,-1.643227488E-1,2.448960173E-1
4.743835420E-1,-6.291911751E-2,-1.734857261E-1,-1.777617931E-1,2.562330338E-1
4.762681530E-1,-6.780604273E-2,-1.759291887E-1,-1.863138974E-1,2.650690612E-1
4.784403110E-1,-7.819075137E-2,-1.759291887E-1,-1.991420686E-1,2.769881524E-1
4.805836950E-1,-8.918632567E-2,-1.685988009E-1,-2.113593817E-1,2.846972859E-1
4.824845030E-1,-9.285151958E-2,-1.661553532E-1,-2.211332172E-1,2.917685827E-1
4.843450380E-1,-1.069014147E-1,-1.533271819E-1,-2.431243658E-1,3.066701721E-1
4.865541950E-1,-1.227839142E-1,-1.417207420E-1,-2.681698501E-1,3.272242760E-1
4.884685760E-1,-1.417207420E-1,-1.331686229E-1,-2.901609838E-1,3.493022292E-1
4.906586180E-1,-1.521054506E-1,-1.301143020E-1,-2.993239760E-1,3.600842156E-1
4.925586920E-1,-1.637118906E-1,-1.020144969E-1,-3.115412891E-1,3.664239560E-1
4.948115420E-1,-1.802052408E-1,-8.063421398E-2,-3.280346394E-1,3.828609799E-1
4.966946920E-1,-1.887573600E-1,-6.780604273E-2,-3.329215646E-1,3.886692277E-1
4.988688490E-1,-2.021963894E-1,-4.581489414E-2,-3.463605940E-1,4.036682370E-1
5.009670420E-1,-2.223549485E-1,-3.420845419E-2,-3.634648323E-1,4.274559928E-1
5.029273490E-1,-2.425135076E-1,-2.993239649E-2,-3.781255782E-1,4.502085101E-1
5.047779610E-1,-2.522873580E-1,-2.626720630E-2,-3.878994286E-1,4.634704347E-1
5.069970030E-1,-2.773328125E-1,-2.871066704E-2,-4.019493461E-1,4.891840841E-1
5.089697690E-1,-3.023782969E-1,-3.970624134E-2,-4.062253833E-1,5.079648433E-1
5.111026570E-1,-3.188716471E-1,-4.520402849E-2,-4.098905921E-1,5.212799910E-1
5.129760380E-1,-3.335324228E-1,-4.642575979E-2,-4.129449129E-1,5.328440009E-1
5.152228490E-1,-3.457497358E-1,-4.825835302E-2,-4.159992337E-1,5.430719206E-1
5.170467690E-1,-3.579670191E-1,-4.764748737E-2,-4.153883755E-1,5.504163627E-1
5.192451950E-1,-3.616322279E-1,-4.703662544E-2,-4.135557711E-1,5.513788971E-1
5.213910410E-1,-3.714060783E-1,-4.581489414E-2,-4.111123085E-1,5.559269824E-1
5.232920410E-1,-3.787364662E-1,-4.581489414E-2,-4.025602043E-1,5.546125074E-1
5.251151530E-1,-3.824016452E-1,-4.337143153E-2,-4.037819207E-1,5.578099486E-1
5.273625030E-1,-3.848451078E-1,-3.848451003E-2,-4.037819207E-1,5.591302657E-1
5.292483840E-1,-3.848451078E-1,-3.237585723E-2,-3.995058835E-1,5.556607814E-1
5.314673880E-1,-3.909537494E-1,-3.543018550E-2,-3.952298164E-1,5.570518289E-1
5.333271150E-1,-3.958406746E-1,-3.726277873E-2,-3.915646076E-1,5.580333290E-1
5.356200410E-1,-4.062253833E-1,-3.909537569E-2,-3.866777122E-1,5.621985090E-1
5.374670380E-1,-4.196644127E-1,-4.398229718E-2,-3.805690408E-1,5.682301088E-1
5.396769260E-1,-4.404338300E-1,-5.009094998E-2,-3.738495409E-1,5.798745909E-1
5.417774260E-1,-4.520402849E-1,-5.375614017E-2,-3.726277947E-1,5.882870177E-1
5.437392720E-1,-4.770857692E-1,-6.230825558E-2,-3.659082949E-1,6.044683864E-1
5.455761530E-1,-5.033529401E-1,-6.902777404E-2,-3.518583775E-1,6.180075515E-1
5.478082340E-1,-5.167919993E-1,-7.086037099E-2,-3.481931984E-1,6.271631894E-1
5.496883070E-1,-5.430592299E-1,-5.497787148E-2,-3.255911767E-1,6.355670758E-1
5.519130800E-1,-5.668829679E-1,-2.748893574E-2,-3.060434759E-1,6.448058235E-1
5.537953070E-1,-5.913175344E-1,-1.832595794E-3,-2.852740586E-1,6.565371836E-1
5.560650800E-1,-6.017022729E-1,9.162978269E-3,-2.767219543E-1,6.623478130E-1
5.579306920E-1,-6.273586154E-1,3.237585723E-2,-2.596177161E-1,6.797267002E-1
5.601212720E-1,-6.456845403E-1,4.886921868E-2,-2.498438805E-1,6.940595729E-1
5.622663490E-1,-6.591235995E-1,6.108652428E-2,-2.406809032E-1,7.043456396E-1
5.641670410E-1,-6.670648456E-1,6.597344577E-2,-2.339613885E-1,7.099760102E-1
5.659862300E-1,-6.768386960E-1,6.780604273E-2,-2.205223590E-1,7.150792898E-1
5.682361180E-1,-6.866125464E-1,6.230825558E-2,-2.058615834E-1,7.195124037E-1
5.701245760E-1,-6.921103001E-1,4.764748737E-2,-1.942551434E-1,7.204318228E-1
5.723393490E-1,-6.969972253E-1,5.497787148E-3,-1.692096740E-1,7.172637391E-1
5.742038840E-1,-6.988298297E-1,-2.138028294E-2,-1.447750628E-1,7.139888418E-1
5.764900410E-1,-6.872233748E-1,-4.764748737E-2,-1.172861308E-1,6.987862953E-1
5.783664610E-1,-6.811147332E-1,-6.047565863E-2,-9.957103431E-2,6.910057713E-1
5.805467720E-1,-6.658431292E-1,-8.796459436E-2,-7.208210230E-2,6.754855083E-1
5.826469260E-1,-6.475171447E-1,-1.136209369E-1,-4.459316283E-2,6.589208755E-1
5.846084260E-1,-6.438519955E-1,-1.203404516E-1,-3.176499158E-2,6.557714778E-1
5.864351530E-1,-6.310238242E-1,-1.447750628E-1,-1.160643995E-2,6.475226598E-1
5.886779260E-1,-6.169738770E-1,-1.588249654E-1,9.773843922E-3,6.371637643E-1
5.905763840E-1,-6.169738770E-1,-1.783726513E-1,3.604105115E-2,6.432515254E-1
5.927819640E-1,-6.151412725E-1,-1.844813079E-1,5.131268129E-2,6.442554846E-1
5.946740760E-1,-6.169738770E-1,-2.040289938E-1,7.941248268E-2,6.546685708E-1
5.969341570E-1,-6.218608022E-1,-2.193006277E-1,1.136209369E-1,6.691138467E-1
5.988244610E-1,-6.267477274E-1,-2.272418737E-1,1.496619880E-1,6.832644390E-1
6.009906570E-1,-6.298020482E-1,-2.333505303E-1,1.667662114E-1,6.920361690E-1
6.031363100E-1,-6.450737119E-1,-2.412917763E-1,2.015855312E-1,7.176200537E-1
6.050375410E-1,-6.499606371E-1,-2.339613885E-1,2.394591719E-1,7.311138462E-1
6.068780380E-1,-6.585127115E-1,-2.309070677E-1,2.559525371E-1,7.432824270E-1
6.091056950E-1,-6.633996367E-1,-2.034181207E-1,2.822197378E-1,7.490834334E-1
6.109878450E-1,-6.646214128E-1,-1.747074574E-1,3.115412891E-1,7.545212341E-1
6.132085410E-1,-6.627888083E-1,-1.417207420E-1,3.420845270E-1,7.592072160E-1
6.150991920E-1,-6.560692787E-1,-1.356120855E-1,3.506366611E-1,7.561505169E-1
6.173590030E-1,-6.499606371E-1,-1.276708394E-1,3.659082949E-1,7.567281898E-1
6.192578450E-1,-6.401867867E-1,-1.307251602E-1,3.750712574E-1,7.533967331E-1
6.214220030E-1,-6.236934066E-1,-1.386664063E-1,3.750712574E-1,7.408780505E-1
6.235223100E-1,-6.133087277E-1,-1.545489132E-1,3.701843321E-1,7.328501906E-1
6.254839260E-1,-5.998696685E-1,-2.046398520E-1,3.475823104E-1,7.228655136E-1
6.273320380E-1,-5.845980644E-1,-2.773328125E-1,3.139847219E-1,7.192042766E-1
6.295520800E-1,-5.723807216E-1,-3.182607889E-1,2.974913716E-1,7.193126833E-1
6.314393450E-1,-5.345070958E-1,-3.750712574E-1,2.840523422E-1,7.120828720E-1
6.336555790E-1,-4.819726646E-1,-4.288274050E-1,2.767219543E-1,7.019726723E-1
6.355675760E-1,-4.312708676E-1,-4.709770977E-1,2.614503205E-1,6.900509097E-1
6.378061180E-1,-4.074471295E-1,-4.862487316E-1,2.510656118E-1,6.822645629E-1
6.397931560E-1,-3.616322279E-1,-5.045747161E-1,2.357939780E-1,6.640574617E-1
6.418615030E-1,-3.188716471E-1,-5.119050741E-1,2.083050460E-1,6.380571482E-1
6.440064260E-1,-2.840523422E-1,-5.070181489E-1,1.820378453E-1,6.090081391E-1
6.459087720E-1,-2.687807083E-1,-5.039638281E-1,1.698205322E-1,5.958704745E-1
6.477505760E-1,-2.394591719E-1,-4.941899776E-1,1.557706445E-1,5.708142629E-1
6.499767330E-1,-2.162462920E-1,-4.874704778E-1,1.331686229E-1,5.496579006E-1
6.518783840E-1,-2.119702399E-1,-4.923573732E-1,1.240056455E-1,5.502041128E-1
6.540806180E-1,-1.918116808E-1,-5.002986193E-1,1.020144969E-1,5.454332103E-1
6.560546920E-1,-1.704314053E-1,-5.174028873E-1,9.285151958E-2,5.526065657E-1
6.582314260E-1,-1.496619880E-1,-5.290092826E-1,9.529497474E-2,5.579701282E-1
6.602189260E-1,-1.362229437E-1,-5.400048494E-1,9.590584040E-2,5.651193308E-1
6.622877330E-1,-1.209513173E-1,-5.754350424E-1,8.368854225E-2,5.939347449E-1
6.643879640E-1,-1.050688252E-1,-6.041457057E-1,6.780604273E-2,6.169514982E-1
6.663487330E-1,-1.001819000E-1,-6.212499738E-1,6.108652428E-2,6.322337435E-1
6.681835760E-1,-8.979719132E-2,-6.554583907E-1,5.070181563E-2,6.635208449E-1
6.704179640E-1,-7.941248268E-2,-7.006624341E-1,3.298672289E-2,7.059194804E-1
6.722904610E-1,-6.963863969E-2,-7.397578359E-1,1.588249579E-2,7.431981227E-1
6.745222720E-1,-6.475171447E-2,-7.556403279E-1,7.330383174E-3,7.584450041E-1
6.764430760E-1,-5.375614017E-2,-7.739662528E-1,-5.497787148E-3,7.758503134E-1
6.786739640E-1,-5.192354694E-2,-8.002334833E-1,-2.993239649E-2,8.024746918E-1
6.805786920E-1,-4.703662544E-2,-8.087855577E-1,-3.970624134E-2,8.111245947E-1
6.827305410E-1,-4.398229718E-2,-8.179485798E-1,-6.108652428E-2,8.214048241E-1
6.848762330E-1,-3.848451003E-2,-8.246681094E-1,-7.330382615E-2,8.288136094E-1
6.867774640E-1,-3.420845419E-2,-8.326093554E-1,-9.101892263E-2,8.382678578E-1
6.886080760E-1,-3.298672289E-2,-8.411614299E-1,-1.001819000E-1,8.477482457E-1
6.908477330E-1,-3.298672289E-2,-8.484918475E-1,-1.117883399E-1,8.564596734E-1
6.927478450E-1,-2.565634064E-2,-8.368853927E-1,-1.203404516E-1,8.458825170E-1
6.949525410E-1,-2.138028294E-2,-8.472700715E-1,-1.295034289E-1,8.573767134E-1
6.969880790E-1,-2.199114859E-2,-8.460483551E-1,-1.404990107E-1,8.579168968E-1
6.991060020E-1,-2.076941915E-2,-8.423831463E-1,-1.588249654E-1,8.574765907E-1
7.010108450E-1,-1.771509275E-2,-8.405506015E-1,-1.808161139E-1,8.599613975E-1
7.031627330E-1,-1.588249579E-2,-8.399397135E-1,-1.973094791E-1,8.629495967E-1
7.052640790E-1,-3.665191587E-3,-8.442157507E-1,-2.290744632E-1,8.747506942E-1
7.072295410E-1,1.832595654E-2,-8.570439219E-1,-2.522873580E-1,8.935933280E-1
7.091467300E-1,4.214970022E-2,-8.619308472E-1,-2.797762752E-1,9.071803275E-1
7.112979640E-1,5.681046844E-2,-8.680394888E-1,-2.895501256E-1,9.168201888E-1
7.132853840E-1,8.552113175E-2,-8.741481900E-1,-3.145956099E-1,9.329626573E-1
7.154020410E-1,1.075122803E-1,-8.857545853E-1,-3.475823104E-1,9.575664668E-1
7.173338840E-1,1.166752651E-1,-8.906415105E-1,-3.616322279E-1,9.683146627E-1
7.195534250E-1,1.368338168E-1,-9.028588533E-1,-3.946189582E-1,9.947872761E-1
7.215406180E-1,1.508837193E-1,-9.120218158E-1,-4.331034720E-1,1.020846858E0
7.236091180E-1,1.698205322E-1,-9.120218158E-1,-4.563163519E-1,1.033850772E0
7.257546180E-1,1.759291887E-1,-9.132435322E-1,-4.642575979E-1,1.039470993E0
7.276552710E-1,1.930334121E-1,-9.199630618E-1,-5.002986193E-1,1.064843952E0
7.295148840E-1,2.021963894E-1,-9.492846131E-1,-5.393940210E-1,1.110392078E0
7.317235020E-1,2.113593817E-1,-9.999864101E-1,-5.876523852E-1,1.178974527E0
7.336198450E-1,2.180788964E-1,-1.027475357E0,-6.084218025E-1,1.213853823E0
7.358274640E-1,2.345722616E-1,-1.086118460E0,-6.407976151E-1,1.282692106E0
7.377259220E-1,2.522873580E-1,-1.133765936E0,-6.640105247E-1,1.337902868E0
7.399798870E-1,2.602286041E-1,-1.151481032E0,-6.780604124E-1,1.361393924E0
7.418789220E-1,2.687807083E-1,-1.167363524E0,-6.957755089E-1,1.385310155E0
7.440370020E-1,2.718350291E-1,-1.163698316E0,-7.141014934E-1,1.392131099E0
7.461376180E-1,2.803871334E-1,-1.132544160E0,-7.348709106E-1,1.378879427E0
7.480990410E-1,2.797762752E-1,-1.110553026E0,-7.470881939E-1,1.367385665E0
7.499501530E-1,2.712241709E-1,-1.068403363E0,-7.745771408E-1,1.347226055E0
7.521682710E-1,2.583959997E-1,-1.025031924E0,-7.910705209E-1,1.320322501E0
7.540678450E-1,2.516764700E-1,-1.006095052E0,-8.014551997E-1,1.310686361E0
7.562735410E-1,2.449569702E-1,-9.578366876E-1,-8.185594082E-1,1.283547639E0
7.581739990E-1,2.376265824E-1,-9.120218158E-1,-8.356636763E-1,1.259596747E0
7.604257330E-1,2.296853364E-1,-8.735373020E-1,-8.515461683E-1,1.241351541E0
7.624134250E-1,2.302961946E-1,-8.509352803E-1,-8.649851680E-1,1.235041104E0
7.644826170E-1,2.302961946E-1,-8.124507666E-1,-8.888089061E-1,1.226007283E0
7.666285790E-1,2.333505303E-1,-7.959573865E-1,-9.217956662E-1,1.240043500E0
7.685298100E-1,2.339613885E-1,-7.910705209E-1,-9.529497623E-1,1.260414118E0
7.704133070E-1,2.339613885E-1,-7.892379165E-1,-9.712757468E-1,1.273189301E0
7.725995400E-1,2.376265824E-1,-7.935139537E-1,-1.018312335E0,1.312665532E0
7.744786150E-1,2.486221492E-1,-7.898487449E-1,-1.060462117E0,1.345456768E0
7.767050020E-1,2.632829249E-1,-7.843509912E-1,-1.075122833E0,1.356618400E0
7.786342300E-1,2.950479090E-1,-7.733554244E-1,-1.095281363E0,1.372870403E0
7.808572710E-1,3.286454976E-1,-7.672467232E-1,-1.119716048E0,1.396581335E0
7.828047300E-1,3.494149148E-1,-7.641924024E-1,-1.154535294E0,1.427946972E0
7.849133480E-1,3.597996235E-1,-7.507534027E-1,-1.167974353E0,1.434311866E0
7.870140020E-1,3.787364662E-1,-7.232644558E-1,-1.188743711E0,1.442104155E0
7.889772710E-1,3.836233616E-1,-6.957755089E-1,-1.193630695E0,1.433884472E0
7.908359610E-1,3.824016452E-1,-6.829473376E-1,-1.197906733E0,1.430953746E0
7.930455020E-1,3.720169365E-1,-6.505714655E-1,-1.183246017E0,1.400610927E0
7.949294990E-1,3.488040566E-1,-6.218608022E-1,-1.164309144E0,1.365280524E0
7.971487710E-1,3.109304011E-1,-5.870414972E-1,-1.131322384E0,1.311939698E0
7.990464220E-1,2.895501256E-1,-5.656611919E-1,-1.116050839E0,1.284282420E0
8.013002330E-1,2.412917763E-1,-5.180137157E-1,-1.086729288E0,1.227819399E0
8.031904610E-1,1.850921661E-1,-4.550946057E-1,-1.055575132E0,1.164306261E0
8.053565400E-1,1.276708394E-1,-3.952298164E-1,-1.023810148E0,1.104850067E0
8.075017330E-1,1.069014147E-1,-3.555235863E-1,-1.004262447E0,1.070685760E0
8.094020020E-1,5.619960278E-2,-2.871066630E-1,-9.627236128E-1,1.006193513E0
8.112595760E-1,4.276056774E-3,-2.211332172E-1,-9.162978530E-1,9.426133565E-1
8.134702710E-1,-1.832595654E-2,-1.899790913E-1,-8.943067193E-1,9.144465014E-1
8.154171530E-1,-5.803219974E-2,-1.185078546E-1,-8.399397135E-1,8.502414775E-1
8.175737330E-1,-1.026253626E-1,-5.864306539E-2,-7.892379165E-1,7.980397628E-1
8.195929990E-1,-1.496619880E-1,7.941247895E-3,-7.476990819E-1,7.625717613E-1
8.217246170E-1,-1.710422635E-1,3.665191308E-2,-7.318165898E-1,7.524322825E-1
8.236512300E-1,-2.211332172E-1,9.834930301E-2,-7.031059265E-1,7.435929189E-1
8.257806170E-1,-2.638937831E-1,1.374446750E-1,-6.829473376E-1,7.449483428E-1
8.278805400E-1,-3.060434759E-1,1.765400618E-1,-6.560692787E-1,7.451549510E-1
8.298411560E-1,-3.225368559E-1,2.003637999E-1,-6.407976151E-1,7.448471382E-1
8.316998070E-1,-3.652974069E-1,2.357939780E-1,-6.145304441E-1,7.527872623E-1
8.339093860E-1,-3.964515328E-1,2.486221492E-1,-6.096435189E-1,7.685388807E-1
8.358374990E-1,-4.135557711E-1,2.541199327E-1,-6.041457057E-1,7.749821609E-1
8.380126940E-1,-4.373795092E-1,2.565633953E-1,-6.023131609E-1,7.873415743E-1
8.399349610E-1,-4.715879560E-1,2.247984111E-1,-6.151412725E-1,8.070491379E-1
8.421643090E-1,-4.886921942E-1,2.015855312E-1,-6.304129362E-1,8.227255054E-1
8.440724990E-1,-4.960225821E-1,1.820378453E-1,-6.475171447E-1,8.357359820E-1
8.462216940E-1,-5.088507533E-1,1.093448773E-1,-6.951646209E-1,8.684119077E-1
8.483668480E-1,-5.161811113E-1,1.038470957E-2,-7.305948138E-1,8.946058148E-1
8.502671170E-1,-5.125159621E-1,-3.543018550E-2,-7.428121567E-1,9.031599026E-1
8.522207300E-1,-5.039638281E-1,-1.404990107E-1,-7.800748944E-1,9.392743757E-1
8.543353480E-1,-4.764748812E-1,-2.284636050E-1,-7.696902156E-1,9.336203507E-1
8.562342300E-1,-4.477642179E-1,-2.577851415E-1,-7.403686643E-1,9.028243090E-1
8.584384630E-1,-4.404338300E-1,-2.877175212E-1,-7.476990819E-1,9.142304128E-1
8.603529220E-1,-4.343251884E-1,-3.194825351E-1,-7.519751191E-1,9.252967304E-1
8.625890790E-1,-4.086688459E-1,-3.029891551E-1,-7.330383062E-1,8.922767576E-1
8.645069220E-1,-3.909537494E-1,-2.614503205E-1,-7.104362845E-1,8.520098700E-1
8.666514250E-1,-3.799581826E-1,-2.351831198E-1,-7.037167549E-1,8.336045774E-1
8.687515020E-1,-3.512475193E-1,-2.040289938E-1,-7.104362845E-1,8.183656667E-1
8.707128860E-1,-3.103195429E-1,-2.076941878E-1,-7.171558142E-1,8.085465702E-1
8.725816530E-1,-2.987131178E-1,-2.241875380E-1,-7.214318514E-1,8.123752182E-1
8.747809250E-1,-2.504547536E-1,-2.773328125E-1,-7.116580009E-1,8.038023282E-1
8.766952680E-1,-2.015855312E-1,-3.347541690E-1,-6.982190013E-1,8.001292732E-1
8.788845400E-1,-1.545489132E-1,-4.092797041E-1,-7.134906054E-1,8.369373254E-1
8.809191550E-1,-1.325577646E-1,-4.495968223E-1,-7.257078886E-1,8.639217575E-1
8.830358860E-1,-9.224065393E-2,-5.216789246E-1,-7.507534027E-1,9.188514081E-1
8.850226550E-1,-5.009094998E-2,-5.992587805E-1,-7.745771408E-1,9.806069224E-1
8.870918860E-1,-1.160643995E-2,-6.884451509E-1,-8.081747293E-1,1.061714570E0
8.892371940E-1,4.276056774E-3,-7.440338731E-1,-8.368853927E-1,1.119813310E0
8.911380400E-1,5.009094998E-2,-8.735373020E-1,-9.004153609E-1,1.255517560E0
8.930243840E-1,7.024950534E-2,-1.144150615E0,-1.080620646E0,1.575359198E0
8.952065020E-1,1.081231460E-1,-1.247386813E0,-1.094059706E0,1.662717991E0
8.971597300E-1,1.838704348E-1,-1.378722906E0,-1.018923283E0,1.724207019E0
8.993100020E-1,2.583959997E-1,-1.384220600E0,-9.358455539E-1,1.690751922E0
9.012098450E-1,2.956587672E-1,-1.313360333E0,-9.028588533E-1,1.620951443E0
9.034608090E-1,2.919935882E-1,-1.256549835E0,-9.022479653E-1,1.574239224E0
9.053359610E-1,2.773328125E-1,-1.116661668E0,-9.138544202E-1,1.469345661E0
9.075165780E-1,2.339613885E-1,-9.615018964E-1,-9.217956662E-1,1.352379783E0
9.096171170E-1,1.936442852E-1,-8.240572214E-1,-8.863654733E-1,1.225647651E0
9.115783860E-1,1.722639948E-1,-7.513642311E-1,-8.558222055E-1,1.151804992E0
9.134790760E-1,1.350012124E-1,-6.279694438E-1,-7.947356701E-1,1.021849174E0
9.156468480E-1,9.590584040E-2,-5.070181489E-1,-7.220427394E-1,8.874745354E-1
9.175823840E-1,6.902777404E-2,-4.599815309E-1,-6.866125464E-1,8.293278190E-1
9.197500400E-1,1.160643995E-2,-3.909537494E-1,-6.249151230E-1,7.372234767E-1
9.217838860E-1,-5.314527452E-2,-3.304781020E-1,-5.601634383E-1,6.525513571E-1
9.239006170E-1,-1.069014147E-1,-2.535090744E-1,-4.972442985E-1,5.682839569E-1
9.258865010E-1,-1.356120855E-1,-2.101376504E-1,-4.709770977E-1,5.332615647E-1
9.279557710E-1,-1.857030392E-1,-1.160643995E-1,-4.135557711E-1,4.679582667E-1
9.301003860E-1,-2.364048511E-1,-1.099557430E-2,-3.714060783E-1,4.403982644E-1
9.320055780E-1,-2.553416789E-1,3.970624134E-2,-3.573561609E-1,4.409981681E-1
9.338844990E-1,-2.981022298E-1,1.368338168E-1,-3.274237812E-1,4.634595617E-1
9.360729240E-1,-3.402519524E-1,2.180788964E-1,-3.078760803E-1,5.080526321E-1
9.379946910E-1,-3.824016452E-1,2.858849466E-1,-2.999348342E-1,5.638458351E-1
9.401763480E-1,-4.031710625E-1,3.152064681E-1,-2.981022298E-1,5.922558253E-1
9.420855760E-1,-4.428772926E-1,3.597996235E-1,-3.054326177E-1,6.472133723E-1
9.443278090E-1,-4.740314186E-1,3.970624208E-1,-3.078760803E-1,6.907619218E-1
9.462394610E-1,-4.917465150E-1,4.123340547E-1,-3.084869385E-1,7.120380600E-1
9.483824630E-1,-5.125159621E-1,4.447098970E-1,-3.115412891E-1,7.466575378E-1
9.504824630E-1,-5.332853794E-1,4.752531648E-1,-3.164281845E-1,7.812718237E-1
9.524420780E-1,-5.552765131E-1,4.960225821E-1,-3.213151097E-1,8.109339108E-1
9.544168450E-1,-5.595525503E-1,5.057964325E-1,-3.280346394E-1,8.225179708E-1
9.565112710E-1,-5.717698932E-1,5.106833577E-1,-3.365867436E-1,8.372627655E-1
9.584481140E-1,-5.754350424E-1,5.002986193E-1,-3.506366611E-1,8.392676954E-1
9.606152320E-1,-5.729916096E-1,4.740314186E-1,-3.689626157E-1,8.301557578E-1
9.626505780E-1,-5.650503635E-1,4.557054639E-1,-3.787364662E-1,8.187738967E-1
9.647672320E-1,-5.455026627E-1,4.221078753E-1,-3.952298164E-1,7.949558612E-1
9.667512680E-1,-5.174028873E-1,3.842342496E-1,-4.166100919E-1,7.674018993E-1
9.688228860E-1,-4.984660447E-1,3.646865487E-1,-4.276056588E-1,7.512065468E-1
9.709672320E-1,-4.550946057E-1,3.188716471E-1,-4.495968223E-1,7.147919488E-1
9.728671940E-1,-4.080579877E-1,2.590068579E-1,-4.667010605E-1,6.718673631E-1
9.747298840E-1,-3.573561609E-1,1.954768747E-1,-4.776966274E-1,6.277807755E-1
9.769357320E-1,-3.353650272E-1,1.624901593E-1,-4.850270152E-1,6.116567328E-1
9.788386530E-1,-2.913827300E-1,9.712757170E-2,-4.917465150E-1,5.797864224E-1
9.810382320E-1,-2.486221492E-1,3.543018550E-2,-5.002986193E-1,5.597919074E-1
9.829439610E-1,-2.260201424E-1,4.886921961E-3,-5.057964325E-1,5.540207739E-1
9.851895010E-1,-1.881465018E-1,-5.131268129E-2,-5.051855445E-1,5.415205737E-1
9.871031530E-1,-1.539380401E-1,-9.285151958E-2,-5.021312237E-1,5.333423766E-1
9.892455010E-1,-1.209513173E-1,-1.313360333E-1,-4.935791194E-1,5.248797214E-1
9.913450400E-1,-1.069014147E-1,-1.484402567E-1,-4.929682612E-1,5.258137777E-1
9.933050010E-1,-8.674286306E-2,-1.685988009E-1,-4.801400900E-1,5.162212568E-1
9.951904990E-1,-7.269296050E-2,-1.838704348E-1,-4.673119187E-1,5.074180059E-1
9.973742700E-1,-6.352998316E-2,-1.912008226E-1,-4.477642179E-1,4.910057109E-1
9.992903840E-1,-5.742133409E-2,-1.960877478E-1,-4.392121136E-1,4.844119065E-1
1.001477886E0,-5.009094998E-2,-1.936442852E-1,-4.159992337E-1,4.615870177E-1
1.003512617E0,-4.459316283E-2,-1.863138974E-1,-3.958406746E-1,4.397627295E-1
1.005628501E0,-4.153883830E-2,-1.802052408E-1,-3.842342496E-1,4.264215783E-1
1.007616540E0,-4.214970022E-2,-1.667662114E-1,-3.585779071E-1,3.977004928E-1
1.009684847E0,-4.153883830E-2,-1.484402567E-1,-3.378084898E-1,3.713146384E-1
1.011830578E0,-4.520402849E-2,-1.356120855E-1,-3.139847219E-1,3.449934021E-1
1.013731155E0,-4.703662544E-2,-1.295034289E-1,-3.017674387E-1,3.317335818E-1
1.015637653E0,-4.764748737E-2,-1.185078546E-1,-2.755002379E-1,3.036688587E-1
1.017800424E0,-4.642575979E-2,-1.111774743E-1,-2.498438805E-1,2.773765430E-1
1.019763730E0,-4.520402849E-2,-1.038470939E-1,-2.394591719E-1,2.648930314E-1
1.021904886E0,-3.787364438E-2,-9.407325089E-2,-2.254092693E-1,2.471710504E-1
1.023841076E0,-2.382374369E-2,-7.941248268E-2,-2.156354338E-1,2.310250062E-1
1.026056809E0,-1.038470957E-2,-7.269296050E-2,-2.131919712E-1,2.254837583E-1
1.028043424E0,-7.941247895E-3,-7.024950534E-2,-2.125810981E-1,2.240285243E-1
1.030111924E0,1.282817032E-2,-6.780604273E-2,-2.150245607E-1,2.258268874E-1
1.032211578E0,3.359758854E-2,-6.780604273E-2,-2.241875380E-1,2.366146859E-1
1.034173578E0,5.925392732E-2,-6.719517708E-2,-2.327396572E-1,2.493871844E-1
1.036041999E0,7.269296050E-2,-6.597344577E-2,-2.394591719E-1,2.588000330E-1
1.038241924E0,9.468411654E-2,-7.086037099E-2,-2.547308207E-1,2.808452690E-1
1.040160922E0,1.160643995E-1,-8.674286306E-2,-2.614503205E-1,2.989172782E-1
1.042345847E0,1.209513173E-1,-9.590584040E-2,-2.700024247E-1,3.110119945E-1
1.044281537E0,1.380555481E-1,-1.191187203E-1,-2.785545588E-1,3.329282897E-1
1.046497116E0,1.514945775E-1,-1.356120855E-1,-2.883284092E-1,3.528094617E-1
1.048484463E0,1.606575549E-1,-1.514945775E-1,-2.968805134E-1,3.699993192E-1
1.050553770E0,1.606575549E-1,-1.594358236E-1,-2.974913716E-1,3.738070999E-1
1.052699578E0,1.618792862E-1,-1.722639948E-1,-2.981022298E-1,3.804533173E-1
1.054599924E0,1.502728462E-1,-1.832595766E-1,-2.919935882E-1,3.760668242E-1
1.056555653E0,1.417207420E-1,-1.795943826E-1,-2.846632004E-1,3.652013809E-1
1.058669770E0,1.185078546E-1,-1.716531366E-1,-2.791654170E-1,3.484856395E-1
1.060593691E0,9.346238524E-2,-1.582140923E-1,-2.742784917E-1,3.301448280E-1
1.062774386E0,7.269296050E-2,-1.313360333E-1,-2.693915665E-1,3.083913687E-1
1.064737114E0,6.780604273E-2,-1.178969890E-1,-2.669481039E-1,2.995974793E-1
1.066925809E0,5.803219974E-2,-9.285151958E-2,-2.577851415E-1,2.800755613E-1
1.068846730E0,5.253441259E-2,-7.757988572E-2,-2.504547536E-1,2.674062206E-1
1.070981655E0,5.619960278E-2,-7.269296050E-2,-2.492330223E-1,2.656308741E-1
1.073082232E0,5.681046844E-2,-7.513642311E-2,-2.492330223E-1,2.664395069E-1
1.075044116E0,6.291911751E-2,-8.979719132E-2,-2.559525371E-1,2.784493709E-1
1.077044501E0,8.246681094E-2,-1.154535338E-1,-2.675589919E-1,3.028499753E-1
1.079113924E0,8.918632567E-2,-1.325577646E-1,-2.718350291E-1,3.153094428E-1
1.081038307E0,1.087340117E-1,-1.704314053E-1,-2.816088796E-1,3.466605115E-1
1.083217501E0,1.343903542E-1,-2.064724565E-1,-2.901609838E-1,3.806376743E-1
1.085253116E0,1.576032341E-1,-2.504547536E-1,-2.999348342E-1,4.213398483E-1
1.087369809E0,1.710422635E-1,-2.706133127E-1,-3.097086847E-1,4.454284345E-1
1.089356847E0,1.954768747E-1,-3.036000133E-1,-3.231477141E-1,4.845705539E-1
1.091426001E0,2.193006277E-1,-3.335324228E-1,-3.390302062E-1,5.237156892E-1
1.093571116E0,2.449569702E-1,-3.543018401E-1,-3.536909819E-1,5.573428225E-1
1.095471539E0,2.559525371E-1,-3.640756905E-1,-3.555235863E-1,5.696137551E-1
1.097354960E0,2.767219543E-1,-3.817907870E-1,-3.732386529E-1,6.013703826E-1
1.099540385E0,2.938261926E-1,-3.964515328E-1,-3.903428912E-1,6.291861585E-1
1.101466345E0,2.987131178E-1,-3.988949955E-1,-3.995058835E-1,6.387109636E-1
1.103644347E0,3.054326177E-1,-4.050036669E-1,-4.227187634E-1,6.603091753E-1
1.105605691E0,3.048217595E-1,-4.092797041E-1,-4.440990388E-1,6.764984387E-1
1.107796308E0,3.017674387E-1,-4.025602043E-1,-4.624249935E-1,6.833411884E-1
1.109708037E0,2.944370508E-1,-3.958406746E-1,-4.697553813E-1,6.812144559E-1
1.111859770E0,2.779437006E-1,-3.799581826E-1,-4.764748812E-1,6.698128347E-1
1.113959885E0,2.522873580E-1,-3.610213697E-1,-4.758640230E-1,6.484072091E-1
1.115922231E0,2.364048511E-1,-3.463605940E-1,-4.740314186E-1,6.328970694E-1
1.117874230E0,1.973094791E-1,-3.182607889E-1,-4.624249935E-1,5.950275917E-1
1.119991116E0,1.576032341E-1,-2.846632004E-1,-4.502076805E-1,5.554807581E-1
1.122025655E0,1.142318025E-1,-2.504547536E-1,-4.386012554E-1,5.178296531E-1
1.124094539E0,9.346238524E-2,-2.302961946E-1,-4.331034720E-1,4.993497493E-1
1.126099230E0,5.497787148E-2,-1.899790913E-1,-4.159992337E-1,4.606191311E-1
1.128245770E0,1.893682219E-2,-1.472185254E-1,-4.037819207E-1,4.301996477E-1
1.130232770E0,-1.466076635E-2,-1.087340117E-1,-3.946189582E-1,4.095877752E-1
1.132301308E0,-2.993239649E-2,-9.285151958E-2,-3.940080702E-1,4.059060389E-1
1.134446962E0,-5.253441259E-2,-5.803219974E-2,-3.885102868E-1,3.963178569E-1
1.136348154E0,-7.391469181E-2,-3.054326214E-2,-3.915646076E-1,3.996487389E-1
1.138348154E0,-8.491026610E-2,-1.588249579E-2,-3.933972120E-1,4.027696282E-1
1.140416885E0,-1.032362282E-1,2.443460980E-3,-4.037819207E-1,4.167775531E-1
1.142341268E0,-1.142318025E-1,1.588249579E-2,-4.111123085E-1,4.269830074E-1
1.144520078E0,-1.258382350E-1,2.748893574E-2,-4.208861589E-1,4.401545885E-1
1.146448960E0,-1.325577646E-1,3.115412779E-2,-4.245513380E-1,4.458542130E-1
1.148671308E0,-1.398881376E-1,3.787364438E-2,-4.379903674E-1,4.613444114E-1
1.150590191E0,-1.459967941E-1,3.420845419E-2,-4.489859641E-1,4.733642130E-1
1.152727078E0,-1.472185254E-1,2.382374369E-2,-4.685336351E-1,4.916956704E-1
1.154826924E0,-1.484402567E-1,1.404990070E-2,-4.807509482E-1,5.033422133E-1
1.156787616E0,-1.453859210E-1,-8.552113548E-3,-4.996877611E-1,5.204786866E-1
1.158693768E0,-1.392772794E-1,-3.481931984E-2,-5.204572082E-1,5.398946667E-1
1.160856347E0,-1.398881376E-1,-4.886921868E-2,-5.259549618E-1,5.464297882E-1
1.162798345E0,-1.392772794E-1,-8.124507964E-2,-5.393940210E-1,5.629785373E-1
1.164959885E0,-1.453859210E-1,-1.191187203E-1,-5.497786999E-1,5.810188933E-1
1.166906807E0,-1.521054506E-1,-1.569923609E-1,-5.601634383E-1,6.013033736E-1
1.169111347E0,-1.533271819E-1,-1.728748679E-1,-5.674937963E-1,6.127349783E-1
1.171098385E0,-1.606575549E-1,-1.936442852E-1,-5.729916096E-1,6.258021602E-1
1.173167808E0,-1.661553532E-1,-2.101376504E-1,-5.797111392E-1,6.386160336E-1
1.175313270E0,-1.771509200E-1,-2.125810981E-1,-5.827654600E-1,6.451269279E-1
1.177214077E0,-1.802052408E-1,-2.125810981E-1,-5.858197808E-1,6.487291173E-1
1.179086922E0,-1.893682331E-1,-1.973094791E-1,-5.845980644E-1,6.454039473E-1
1.181283270E0,-1.966986060E-1,-1.722639948E-1,-5.864306092E-1,6.420795005E-1
1.183194960E0,-2.009746730E-1,-1.569923609E-1,-5.858197808E-1,6.389227154E-1
1.185387693E0,-2.119702399E-1,-1.264491081E-1,-5.791002512E-1,6.295060448E-1
1.187311153E0,-2.235766798E-1,-9.407325089E-2,-5.729916096E-1,6.222183644E-1
1.189538885E0,-2.388483137E-1,-6.475171447E-2,-5.723807216E-1,6.235871967E-1
1.191424230E0,-2.467895597E-1,-4.764748737E-2,-5.711590052E-1,6.240176111E-1
1.193595116E0,-2.614503205E-1,-2.382374369E-2,-5.699372888E-1,6.274968956E-1
1.195695654E0,-2.742784917E-1,-8.552113548E-3,-5.650503635E-1,6.281590109E-1
1.197659154E0,-2.816088796E-1,-3.665191587E-3,-5.607742667E-1,6.275227270E-1
1.199658962E0,-3.048217595E-1,-1.221730490E-3,-5.619960427E-1,6.393413405E-1
1.201727731E0,-3.310889602E-1,5.497787148E-3,-5.638286471E-1,6.538752699E-1
1.203642037E0,-3.573561609E-1,1.649336144E-2,-5.595525503E-1,6.641344090E-1
1.205831462E0,-3.756821156E-1,2.199114859E-2,-5.583308339E-1,6.733156635E-1
1.207748768E0,-4.080579877E-1,3.787364438E-2,-5.558874011E-1,6.906204000E-1
1.209982616E0,-4.434881806E-1,5.864306539E-2,-5.455026627E-1,7.054742592E-1
1.211969885E0,-4.544837475E-1,7.269296050E-2,-5.381723046E-1,7.081448812E-1
1.214038808E0,-4.941899776E-1,1.105666086E-1,-5.265658498E-1,7.305616354E-1
1.216184346E0,-5.314527750E-1,1.557706445E-1,-5.125159621E-1,7.545721683E-1
1.218084731E0,-5.656611919E-1,2.028072625E-1,-5.015203953E-1,7.827043354E-1
1.219967383E0,-5.821545720E-1,2.247984111E-1,-4.929682612E-1,7.952710091E-1
1.222153077E0,-6.163630486E-1,2.638937831E-1,-4.795292318E-1,8.243128171E-1
1.224024883E0,-6.438519955E-1,3.023782969E-1,-4.654793143E-1,8.500876534E-1
1.226257654E0,-6.676757336E-1,3.408628106E-1,-4.544837475E-1,8.766606057E-1
1.228162960E0,-6.847799420E-1,3.616322279E-1,-4.514294267E-1,8.963760174E-1
1.230409116E0,-7.061602473E-1,3.970624208E-1,-4.459316432E-1,9.247572067E-1
1.232318883E0,-7.195992470E-1,4.172209501E-1,-4.483750761E-1,9.449532297E-1
1.234464923E0,-7.257078886E-1,4.159992337E-1,-4.526511431E-1,9.511048099E-1
1.236565346E0,-7.342600226E-1,3.995058835E-1,-4.587597847E-1,9.535215109E-1
1.238526462E0,-7.373143435E-1,3.536909819E-1,-4.642575979E-1,9.403535872E-1
1.240458960E0,-7.385360599E-1,2.583959997E-1,-4.728097022E-1,9.141952848E-1
1.242596231E0,-7.354817390E-1,1.948660165E-1,-4.789183438E-1,8.990377817E-1
1.244495653E0,-7.220427394E-1,6.536258012E-2,-4.862487316E-1,8.729580823E-1
1.246700539E0,-6.902777553E-1,-3.665191308E-2,-4.874704778E-1,8.458452630E-1
1.248625460E0,-6.670648456E-1,-7.391469181E-2,-4.941899776E-1,8.334642307E-1
1.250852846E0,-6.224716902E-1,-1.270599663E-1,-5.100724697E-1,8.147325724E-1
1.252806499E0,-5.711590052E-1,-1.533271819E-1,-5.216789246E-1,7.885941505E-1
1.254909269E0,-5.216789246E-1,-1.643227488E-1,-5.320636034E-1,7.630481926E-1
1.257055231E0,-5.027421117E-1,-1.734857261E-1,-5.400048494E-1,7.579262269E-1
1.258955923E0,-4.654793143E-1,-1.942551434E-1,-5.369505286E-1,7.366966289E-1
1.260955577E0,-4.123340547E-1,-1.930334121E-1,-5.332853794E-1,7.011950989E-1
1.263025192E0,-3.445279896E-1,-1.704314053E-1,-5.345070958E-1,6.583648191E-1
1.265060000E0,-3.121521473E-1,-1.576032341E-1,-5.345070958E-1,6.387296595E-1
1.267128846E0,-2.608394623E-1,-1.337794960E-1,-5.387831330E-1,6.133689290E-1
1.269035960E0,-2.260201424E-1,-1.166752651E-1,-5.271766782E-1,5.853319334E-1
1.271281423E0,-2.131919712E-1,-1.075122803E-1,-5.204572082E-1,5.726127946E-1
1.273268846E0,-1.985312104E-1,-9.346238524E-2,-5.064072609E-1,5.519041338E-1
1.275337885E0,-1.954768747E-1,-8.002334833E-2,-4.856378734E-1,5.295838828E-1
1.277438615E0,-2.058615834E-1,-6.108652428E-2,-4.569272101E-1,5.048693200E-1
1.279400846E0,-2.107485086E-1,-5.253441259E-2,-4.465425014E-1,4.965631923E-1
1.281400731E0,-2.370157093E-1,-3.359758854E-2,-4.257730842E-1,4.884546689E-1
1.283469923E0,-2.718350291E-1,-7.941247895E-3,-4.074471295E-1,4.898678493E-1
1.285385345E0,-2.901609838E-1,-1.221730490E-3,-3.988949955E-1,4.932667702E-1
1.287574385E0,-3.298672438E-1,2.321287990E-2,-3.805690408E-1,5.041666700E-1
1.289438383E0,-3.701843321E-1,4.642575979E-2,-3.604104817E-1,5.187364516E-1
1.291725423E0,-4.153883755E-1,6.902777404E-2,-3.390302062E-1,5.406050470E-1
1.293712231E0,-4.361577928E-1,7.635815442E-2,-3.304781020E-1,5.525214601E-1
1.295781077E0,-4.813618064E-1,8.857546002E-2,-3.139847219E-1,5.814991026E-1
1.297926692E0,-5.204572082E-1,9.529497474E-2,-2.981022298E-1,6.073069876E-1
1.299828192E0,-5.522221923E-1,9.957103431E-2,-2.797762752E-1,6.270075794E-1
1.301827577E0,-5.626068711E-1,9.773843735E-2,-2.761110961E-1,6.342843455E-1
1.303896385E0,-5.827654600E-1,9.896016866E-2,-2.638937831E-1,6.473396521E-1
1.305790153E0,-5.955936313E-1,1.007927656E-1,-2.547308207E-1,6.555751263E-1
1.308000500E0,-6.047565937E-1,1.007927656E-1,-2.553416789E-1,6.641453848E-1
1.309899614E0,-6.108652353E-1,9.834930301E-2,-2.571742535E-1,6.700503845E-1
1.312152115E0,-6.065891981E-1,8.735372871E-2,-2.657263875E-1,6.679757797E-1
1.314033153E0,-5.864306092E-1,7.635815442E-2,-2.602286041E-1,6.461039805E-1
1.316208231E0,-5.705481172E-1,7.086037099E-2,-2.559525371E-1,6.293314289E-1
1.318309923E0,-5.406157374E-1,5.070181563E-2,-2.577851415E-1,6.010733972E-1
1.320270731E0,-5.033529401E-1,1.954768784E-2,-2.626720667E-1,5.681046638E-1
1.322132114E0,-4.825835526E-1,-3.665191587E-3,-2.645046413E-1,5.503299230E-1
1.324340269E0,-4.398229718E-1,-5.375614017E-2,-2.663372457E-1,5.169811385E-1
1.326268460E0,-3.946189582E-1,-1.075122803E-1,-2.657263875E-1,4.877432989E-1
1.328444385E0,-3.555235863E-1,-1.569923609E-1,-2.706133127E-1,4.735770125E-1
1.330479423E0,-3.347541690E-1,-1.820378453E-1,-2.742784917E-1,4.694963491E-1
1.332596192E0,-2.968805134E-1,-2.315179259E-1,-2.779437006E-1,4.679650520E-1
1.334511730E0,-2.559525371E-1,-2.608394623E-1,-2.797762752E-1,4.602430776E-1
1.336653577E0,-2.205223590E-1,-2.767219543E-1,-2.889392674E-1,4.568271567E-1
1.338799654E0,-2.040289938E-1,-2.846632004E-1,-2.950479090E-1,4.579456699E-1
1.340700346E0,-1.771509200E-1,-2.889392674E-1,-3.103195429E-1,4.595286361E-1
1.342572037E0,-1.521054506E-1,-2.907718420E-1,-3.200933933E-1,4.584147823E-1
1.344769923E0,-1.417207420E-1,-2.871066630E-1,-3.243694305E-1,4.557746506E-1
1.346682614E0,-1.246165112E-1,-2.846632004E-1,-3.255911767E-1,4.500800228E-1
1.348874346E0,-1.093448773E-1,-2.797762752E-1,-3.213151097E-1,4.398573247E-1
1.350781422E0,-1.050688252E-1,-2.687807083E-1,-3.078760803E-1,4.219836584E-1
1.353026692E0,-1.044579595E-1,-2.583959997E-1,-3.011565804E-1,4.103355260E-1
1.355001537E0,-1.093448773E-1,-2.388483137E-1,-2.809980214E-1,3.846618088E-1
1.357090231E0,-1.227839142E-1,-2.162462920E-1,-2.547308207E-1,3.559861505E-1
1.359191154E0,-1.380555481E-1,-2.034181207E-1,-2.260201424E-1,3.339511506E-1
1.361153154E0,-1.514945775E-1,-1.936442852E-1,-2.113593817E-1,3.242244661E-1
1.363010999E0,-1.661553532E-1,-1.698205322E-1,-1.863138974E-1,3.019262872E-1
1.365223077E0,-1.802052408E-1,-1.478293836E-1,-1.576032341E-1,2.813649496E-1
1.367128499E0,-1.875356287E-1,-1.368338168E-1,-1.429424733E-1,2.726273209E-1
1.369327884E0,-2.089159191E-1,-1.178969890E-1,-1.191187203E-1,2.678335878E-1
1.371220499E0,-2.217440903E-1,-9.773843735E-2,-9.957103431E-2,2.619878520E-1
1.373479961E0,-2.345722616E-1,-8.063421398E-2,-8.613199741E-2,2.625733104E-1
1.375408653E0,-2.412917763E-1,-6.902777404E-2,-7.819075137E-2,2.628694514E-1
1.377537346E0,-2.486221492E-1,-4.520402849E-2,-6.719517708E-2,2.614795768E-1
1.379683192E0,-2.492330223E-1,-2.443460934E-2,-5.619960278E-2,2.566564726E-1
1.381584615E0,-2.504547536E-1,-1.221730467E-2,-5.070181563E-2,2.558271296E-1
1.383454845E0,-2.388483137E-1,6.108652335E-3,-3.848451003E-2,2.420059712E-1
1.385653846E0,-2.333505303E-1,2.076941915E-2,-2.932153270E-2,2.361008069E-1
1.387493383E0,-2.266310006E-1,3.237585723E-2,-1.954768784E-2,2.297649205E-1
1.389758115E0,-2.229658216E-1,4.092797264E-2,-1.527163107E-2,2.272049279E-1
1.391621153E0,-2.156354338E-1,5.925392732E-2,-8.552113548E-3,2.237918829E-1
1.393909654E0,-2.028072625E-1,6.414084882E-2,-5.497787148E-3,2.127793690E-1
1.395777922E0,-1.991420686E-1,6.963863969E-2,-6.108652451E-4,2.109679520E-1
1.397966884E0,-1.924225539E-1,6.780604273E-2,3.054326167E-3,2.040427102E-1
1.400067461E0,-1.826487035E-1,7.819075137E-2,1.221730467E-2,1.990567884E-1
1.402028423E0,-1.698205322E-1,8.613199741E-2,2.199114859E-2,1.916803192E-1
1.403893268E0,-1.655444801E-1,8.918632567E-2,2.382374369E-2,1.895435210E-1
1.406097846E0,-1.563815027E-1,9.040805697E-2,3.237585723E-2,1.835129077E-1
1.408030922E0,-1.496619880E-1,8.613199741E-2,4.337143153E-2,1.780407614E-1
1.410202192E0,-1.398881376E-1,7.208210230E-2,5.619960278E-2,1.671015136E-1
1.412100806E0,-1.356120855E-1,5.986479297E-2,6.291911751E-2,1.610380281E-1
1.414353423E0,-1.331686229E-1,4.886921868E-2,7.452555746E-2,1.602377651E-1
1.416277153E0,-1.337794960E-1,4.092797264E-2,7.880161703E-2,1.605669559E-1
1.418411076E0,-1.246165112E-1,5.742133409E-2,8.796459436E-2,1.629854421E-1
1.420556384E0,-1.276708394E-1,6.291911751E-2,9.101892263E-2,1.689470416E-1
1.422457500E0,-1.233947799E-1,7.696902007E-2,9.468411654E-2,1.735384213E-1
1.424374883E0,-1.362229437E-1,8.979719132E-2,1.014036313E-1,1.921013336E-1
1.426527230E0,-1.362229437E-1,9.590584040E-2,1.038470939E-1,1.963131160E-1
1.428422268E0,-1.508837193E-1,1.026253626E-1,1.154535338E-1,2.159337405E-1
1.430632038E0,-1.539380401E-1,1.056796908E-1,1.246165112E-1,2.244869531E-1
1.432508845E0,-1.612684280E-1,1.056796908E-1,1.350012124E-1,2.353742345E-1
1.434783461E0,-1.667662114E-1,1.044579595E-1,1.423316002E-1,2.428594634E-1
1.436670306E0,-1.722639948E-1,1.081231460E-1,1.557706445E-1,2.561835130E-1
1.438840038E0,-1.808161139E-1,1.062905490E-1,1.759291887E-1,2.737576069E-1
1.440940153E0,-1.783726513E-1,1.105666086E-1,1.979203373E-1,2.884687810E-1
1.442904115E0,-1.814269722E-1,1.099557430E-1,2.107485086E-1,2.990333518E-1
1.444745922E0,-1.899790913E-1,1.142318025E-1,2.284636050E-1,3.183340677E-1
1.446972423E0,-1.930334121E-1,1.313360333E-1,2.382374406E-1,3.335687784E-1
1.448958306E0,-1.924225539E-1,1.362229437E-1,2.443460971E-1,3.395410797E-1
1.451075999E0,-1.997529417E-1,1.447750628E-1,2.553416789E-1,3.550498972E-1
1.453110615E0,-2.083050460E-1,1.576032341E-1,2.730567753E-1,3.778753420E-1
1.455227307E0,-2.083050460E-1,1.631010175E-1,2.852740586E-1,3.890684035E-1
1.457116114E0,-2.058615834E-1,1.643227488E-1,2.901609838E-1,3.918856387E-1
1.459282346E0,-2.113593817E-1,1.496619880E-1,2.944370508E-1,3.921283920E-1
1.461427884E0,-2.003637999E-1,1.380555481E-1,3.017674387E-1,3.876449067E-1
1.463328692E0,-1.997529417E-1,1.307251602E-1,2.987131178E-1,3.823870186E-1
1.465182499E0,-2.021963894E-1,1.246165112E-1,3.103195429E-1,3.907823863E-1
1.467397961E0,-2.015855312E-1,1.056796908E-1,3.207042515E-1,3.932634491E-1
1.469267268E0,-2.058615834E-1,7.024950534E-2,3.396410644E-1,4.033237374E-1
1.471502346E0,-1.960877478E-1,5.803219974E-2,3.451388776E-1,4.011720154E-1
1.473374999E0,-1.863138974E-1,3.359758854E-2,3.671300113E-1,4.130691365E-1
1.475654769E0,-1.637118906E-1,1.404990070E-2,3.878994286E-1,4.212658894E-1
1.477520114E0,-1.551597714E-1,6.719517522E-3,3.982841372E-1,4.274926439E-1
1.479712922E0,-1.362229437E-1,-9.773843922E-3,4.172209501E-1,4.390051704E-1
1.481813769E0,-1.337794960E-1,-2.199114859E-2,4.428772926E-1,4.631639672E-1
1.483774461E0,-1.221730486E-1,-4.153883830E-2,4.648684561E-1,4.824462772E-1
1.485624806E0,-1.246165112E-1,-5.253441259E-2,4.740314186E-1,4.929451543E-1
1.487843538E0,-1.197295859E-1,-7.024950534E-2,4.801400900E-1,4.998046346E-1
1.489722114E0,-1.136209369E-1,-8.246681094E-2,4.697553813E-1,4.902862536E-1
1.491947653E0,-1.105666086E-1,-8.979719132E-2,4.630358517E-1,4.844488729E-1
1.493866422E0,-1.062905490E-1,-9.285151958E-2,4.569272101E-1,4.782275199E-1
1.496099730E0,-9.957103431E-2,-9.773843735E-2,4.532620013E-1,4.742506034E-1
1.497990999E0,-9.285151958E-2,-9.285151958E-2,4.404338300E-1,4.595919582E-1
1.500156422E0,-9.162978828E-2,-8.918632567E-2,4.324925840E-1,4.509989512E-1
1.502302499E0,-8.735372871E-2,-8.918632567E-2,4.141666293E-1,4.325723887E-1
1.504204076E0,-8.613199741E-2,-8.307767659E-2,4.007275999E-1,4.182143357E-1
1.506052806E0,-8.246681094E-2,-7.574728876E-2,3.854559660E-1,4.013909919E-1
1.508273922E0,-8.735372871E-2,-7.513642311E-2,3.793473244E-1,3.964600213E-1
1.510164422E0,-8.674286306E-2,-6.658431143E-2,3.677408695E-1,3.836549777E-1
1.512378653E0,-9.285151958E-2,-5.558873713E-2,3.585779071E-1,3.745525702E-1
1.514329229E0,-8.491026610E-2,-4.886921868E-2,3.536909819E-1,3.670085346E-1
1.516530961E0,-8.674286306E-2,-3.054326214E-2,3.378084898E-1,3.501025435E-1
1.518465576E0,-8.613199741E-2,-1.221730467E-2,3.170390725E-1,3.287579003E-1
1.520587191E0,-8.429940045E-2,-4.276056774E-3,2.938261926E-1,3.057098380E-1
1.522687499E0,-9.162978828E-2,-1.832595794E-3,2.871066630E-1,3.013795156E-1
1.524650038E0,-9.773843735E-2,1.832595794E-3,2.803871334E-1,2.969395647E-1
1.526545845E0,-1.007927656E-1,6.108652451E-4,2.816088796E-1,2.991038546E-1
1.528719768E0,-9.773843735E-2,-2.382374369E-2,2.913827300E-1,3.082600659E-1
1.530614383E0,-9.529497474E-2,-3.787364438E-2,2.962696552E-1,3.135143597E-1
1.532823268E0,-8.979719132E-2,-6.658431143E-2,3.048217595E-1,3.246741615E-1
1.534814576E0,-8.368854225E-2,-7.208210230E-2,3.005456924E-1,3.201988676E-1
1.536975076E0,-6.719517708E-2,-6.230825558E-2,2.901609838E-1,3.042875401E-1
1.538962345E0,-6.414084882E-2,-5.558873713E-2,2.797762752E-1,2.923677826E-1
1.541031653E0,-5.070181563E-2,-4.153883830E-2,2.712241709E-1,2.790317188E-1
1.543177384E0,-4.276056588E-2,-4.886921868E-2,2.785545588E-1,2.860232661E-1
1.545078845E0,-4.276056588E-2,-6.352998316E-2,2.926044464E-1,3.024597276E-1
1.546922576E0,-3.237585723E-2,-1.142318025E-1,3.304781020E-1,3.511593324E-1
1.549147422E0,-2.748893574E-2,-1.704314053E-1,3.616322279E-1,4.007248105E-1
1.551111191E0,-2.321287990E-2,-1.899790913E-1,3.671300113E-1,4.140233546E-1
1.553251653E0,-6.719517522E-3,-1.936442852E-1,3.634648323E-1,4.118858403E-1
1.555135922E0,7.941247895E-3,-1.740965992E-1,3.488040566E-1,3.899191701E-1
1.557403230E0,4.276056774E-3,-1.478293836E-1,3.347541690E-1,3.659674370E-1
1.559275152E0,1.832595794E-3,-1.313360333E-1,3.329215646E-1,3.578956276E-1
1.561459768E0,-2.565634064E-2,-1.007927656E-1,3.243694305E-1,3.406361063E-1
1.563559961E0,-5.375614017E-2,-5.619960278E-2,3.097086847E-1,3.193236404E-1
1.565521768E0,-9.040805697E-2,-1.221730467E-2,3.029891551E-1,3.164258324E-1
1.567456460E0,-1.075122803E-1,5.497787148E-3,3.042109013E-1,3.226970538E-1
1.569591268E0,-1.508837193E-1,3.054326214E-2,3.078760803E-1,3.442186346E-1
1.571458383E0,-1.905899495E-1,5.986479297E-2,3.121521473E-1,3.706039467E-1
1.573696307E0,-2.070833147E-1,6.902777404E-2,3.145956099E-1,3.829082535E-1
1.575714306E0,-2.437352389E-1,8.307767659E-2,3.170390725E-1,4.084391516E-1
1.577848884E0,-2.748893499E-1,8.674286306E-2,3.243694305E-1,4.339400955E-1
1.579836884E0,-2.999348342E-1,8.246681094E-2,3.280346394E-1,4.520712381E-1
1.581905922E0,-3.048217595E-1,7.574728876E-2,3.286454976E-1,4.546007258E-1
1.584051960E0,-3.182607889E-1,6.719517708E-2,3.323107064E-1,4.650113194E-1
1.585953807E0,-3.292563558E-1,5.314527452E-2,3.335324228E-1,4.716757838E-1
1.587849076E0,-3.341432810E-1,4.825835302E-2,3.323107064E-1,4.737203885E-1
1.590023999E0,-3.469714522E-1,5.070181563E-2,3.329215646E-1,4.835252123E-1
1.591989499E0,-3.567453027E-1,5.253441259E-2,3.286454976E-1,4.878882439E-1
1.594128691E0,-3.677408695E-1,5.681046844E-2,3.268128932E-1,4.952448319E-1
1.596006499E0,-3.695734739E-1,6.230825558E-2,3.243694305E-1,4.956635944E-1
1.598281730E0,-3.799581826E-1,7.024950534E-2,3.213151097E-1,5.025401608E-1
1.600177268E0,-3.903428912E-1,7.391469181E-2,3.176499307E-1,5.086574809E-1
1.602348114E0,-4.013384581E-1,7.880161703E-2,3.158173263E-1,5.167425242E-1
1.604449460E0,-4.025602043E-1,8.429940045E-2,3.133738637E-1,5.170728048E-1
1.606413191E0,-4.031710625E-1,8.613199741E-2,3.054326177E-1,5.130835317E-1
1.608267422E0,-3.976732790E-1,8.185594529E-2,2.944370508E-1,5.015352525E-1
1.610483076E0,-3.952298164E-1,7.513642311E-2,2.895501256E-1,4.956726391E-1
1.612439960E0,-3.891211748E-1,6.841690838E-2,2.803871334E-1,4.844719874E-1
1.614587307E0,-3.836233616E-1,6.475171447E-2,2.736676335E-1,4.756612678E-1
1.616483229E0,-3.756821156E-1,5.986479297E-2,2.693915665E-1,4.661466094E-1
1.618739191E0,-3.732386529E-1,5.497787148E-2,2.669481039E-1,4.621590079E-1
1.620629614E0,-3.695734739E-1,4.153883830E-2,2.620611787E-1,4.549572388E-1
1.622796037E0,-3.640756905E-1,2.932153270E-2,2.602286041E-1,4.484749570E-1
1.624941960E0,-3.597996235E-1,1.282817032E-2,2.632829249E-1,4.460249203E-1
1.626842653E0,-3.536909819E-1,6.719517522E-3,2.614503205E-1,4.398849084E-1
1.628689768E0,-3.463605940E-1,-1.832595794E-3,2.596177161E-1,4.328630014E-1
1.630911499E0,-3.371976018E-1,-7.330383174E-3,2.571742535E-1,4.241397810E-1
1.632787729E0,-3.329215646E-1,-1.038470957E-2,2.528982162E-1,4.182130057E-1
1.635015883E0,-3.207042515E-1,-1.649336144E-2,2.528982162E-1,4.087551293E-1
1.636933845E0,-3.084869385E-1,-1.771509275E-2,2.547308207E-1,4.004569973E-1
1.639168037E0,-3.042109013E-1,-1.954768784E-2,2.528982162E-1,3.960857134E-1
1.641111537E0,-3.011565804E-1,-1.649336144E-2,2.535090744E-1,3.939976748E-1
1.643224576E0,-2.962696552E-1,-1.343903504E-2,2.474004179E-1,3.862166271E-1
1.645325153E0,-2.932153046E-1,-8.552113548E-3,2.449569702E-1,3.821678568E-1
1.647286153E0,-2.901609838E-1,0.000000000E0,2.443460971E-1,3.793394413E-1
1.649159229E0,-2.871066630E-1,1.221730490E-3,2.443460971E-1,3.770102701E-1
1.651354883E0,-2.858849466E-1,6.719517522E-3,2.437352389E-1,3.757422272E-1
1.653278806E0,-2.803871334E-1,6.719517522E-3,2.425135076E-1,3.707760751E-1
1.655458922E0,-2.809980214E-1,4.886921961E-3,2.412917763E-1,3.704125961E-1
1.657371999E0,-2.767219543E-1,4.276056774E-3,2.370157093E-1,3.643758652E-1
1.659610806E0,-2.712241709E-1,1.832595794E-3,2.321287990E-1,3.570009644E-1
1.661522422E0,-2.736676335E-1,-6.719517522E-3,2.229658216E-1,3.530621520E-1
1.663667306E0,-2.700024247E-1,-1.404990070E-2,2.229658216E-1,3.504460967E-1
1.665812114E0,-2.742784917E-1,-2.932153270E-2,2.180788964E-1,3.516345381E-1
1.667713537E0,-2.724458873E-1,-4.092797264E-2,2.193006277E-1,3.521287063E-1
1.669560152E0,-2.748893499E-1,-5.009094998E-2,2.199114859E-1,3.555760391E-1
1.671783114E0,-2.681698501E-1,-6.780604273E-2,2.199114859E-1,3.533748570E-1
1.673682614E0,-2.620611787E-1,-8.552113175E-2,2.199114859E-1,3.526343531E-1
1.675887499E0,-2.541199327E-1,-9.834930301E-2,2.223549485E-1,3.516976666E-1
1.677829229E0,-2.461786866E-1,-1.081231460E-1,2.205223590E-1,3.477422483E-1
1.680039729E0,-2.351831198E-1,-1.209513173E-1,2.168571651E-1,3.420048991E-1
1.681899575E0,-2.260201424E-1,-1.368338168E-1,2.113593817E-1,3.383509811E-1
1.684096652E0,-2.168571651E-1,-1.441642046E-1,2.046398520E-1,3.311915110E-1
1.686197037E0,-2.131919712E-1,-1.484402567E-1,2.021963894E-1,3.291940253E-1
1.688161729E0,-2.046398520E-1,-1.551597714E-1,2.034181207E-1,3.276140344E-1
1.690047922E0,-1.991420686E-1,-1.582140923E-1,2.009746730E-1,3.241605801E-1
1.692231806E0,-1.948660165E-1,-1.563815027E-1,2.015855312E-1,3.210368596E-1
1.694213845E0,-1.857030392E-1,-1.502728462E-1,1.954768747E-1,3.086725702E-1
1.696337075E0,-1.814269722E-1,-1.441642046E-1,1.930334121E-1,3.015973513E-1
1.698278614E0,-1.716531366E-1,-1.404990107E-1,1.905899495E-1,2.924539283E-1
1.700491229E0,-1.704314053E-1,-1.331686229E-1,1.863138974E-1,2.854708643E-1
1.702378306E0,-1.649336219E-1,-1.197295859E-1,1.857030392E-1,2.757243046E-1
1.704546460E0,-1.637118906E-1,-9.896016866E-2,1.881465018E-1,2.683166119E-1
1.706693152E0,-1.551597714E-1,-7.330382615E-2,1.936442852E-1,2.587394728E-1
1.708594845E0,-1.502728462E-1,-6.047565863E-2,1.942551434E-1,2.529314024E-1
1.710406845E0,-1.472185254E-1,-3.115412779E-2,2.009746730E-1,2.510671088E-1
1.712664729E0,-1.411098689E-1,-1.221730467E-2,2.015855312E-1,2.463696086E-1
1.714556191E0,-1.374446750E-1,-4.886921961E-3,1.991420686E-1,2.420175287E-1
1.716769191E0,-1.331686229E-1,7.941247895E-3,1.973094791E-1,2.381763550E-1
1.718651806E0,-1.160643995E-1,2.015855350E-2,1.912008226E-1,2.245775293E-1
1.720922498E0,-1.050688252E-1,2.809980139E-2,1.869247705E-1,2.162635584E-1
1.722808575E0,-1.001819000E-1,3.298672289E-2,1.814269722E-1,2.098577690E-1
1.724978460E0,-9.040805697E-2,3.298672289E-2,1.771509200E-1,2.016040404E-1
1.727078729E0,-7.757988572E-2,2.565634064E-2,1.667662114E-1,1.857090621E-1
1.729039921E0,-6.841690838E-2,2.199114859E-2,1.637118906E-1,1.787905677E-1
1.730876114E0,-5.864306539E-2,7.330383174E-3,1.563815027E-1,1.671763082E-1
1.733108998E0,-4.642575979E-2,1.221730490E-3,1.466076523E-1,1.537876702E-1
1.734984768E0,-3.604105115E-2,-7.941247895E-3,1.350012124E-1,1.399548074E-1
1.737212921E0,-2.809980139E-2,-1.527163107E-2,1.295034289E-1,1.333940016E-1
1.739094306E0,-2.015855350E-2,-2.382374369E-2,1.081231460E-1,1.125368950E-1
1.741364037E0,-1.710422710E-2,-3.054326214E-2,7.941248268E-2,8.678587357E-2
1.743239075E0,-2.321287990E-2,-1.527163107E-2,-3.665191587E-3,2.802666834E-2
1.745420268E0,-3.970624134E-2,4.276056774E-3,-6.047565863E-2,7.247189489E-2
1.747565537E0,-3.115412779E-2,2.626720630E-2,-1.411098689E-1,1.468759371E-1
1.749466383E0,-5.558873713E-2,4.520402849E-2,-1.985312104E-1,2.110643347E-1
1.751307729E0,-3.298672289E-2,4.825835302E-2,-2.186897546E-1,2.263674033E-1
1.753536344E0,-4.214970022E-2,5.253441259E-2,-2.461786866E-1,2.552261889E-1
1.755387691E0,-1.588249579E-2,4.642575979E-2,-2.535090744E-1,2.582139727E-1
1.757640575E0,6.108652451E-4,5.070181563E-2,-2.467895597E-1,2.519447044E-1
1.759509075E0,1.588249579E-2,4.886921868E-2,-2.431243658E-1,2.484952946E-1
1.761792883E0,1.893682219E-2,5.009094998E-2,-2.296853364E-1,2.358454160E-1
1.763669537E0,2.382374369E-2,5.314527452E-2,-2.101376504E-1,2.180592192E-1
1.765848767E0,2.748893574E-2,5.314527452E-2,-1.979203373E-1,2.067668293E-1
1.767949806E0,3.176499158E-2,5.070181563E-2,-1.789835095E-1,1.887188000E-1
1.769911998E0,3.665191308E-2,5.375614017E-2,-1.576032341E-1,1.705047352E-1
1.771751652E0,2.748893574E-2,5.253441259E-2,-1.386664063E-1,1.508107368E-1
1.773981306E0,3.543018550E-2,5.436700583E-2,-1.313360333E-1,1.464930818E-1
1.775861998E0,2.076941915E-2,5.192354694E-2,-1.142318025E-1,1.271861950E-1
1.778087037E0,2.199114859E-2,5.558873713E-2,-9.529497474E-2,1.124937799E-1
1.779983998E0,6.719517522E-3,5.131268129E-2,-7.696902007E-2,9.274897965E-2
1.782239421E0,7.941247895E-3,5.375614017E-2,-6.780604273E-2,8.689329925E-2
1.784213960E0,-6.719517522E-3,6.291911751E-2,-5.192354694E-2,8.185366205E-2
1.786295998E0,-1.038470957E-2,7.208210230E-2,-3.848451003E-2,8.236946751E-2
1.788442267E0,-2.687807009E-2,8.307767659E-2,-2.443460934E-2,9.067183208E-2
1.790343383E0,-3.115412779E-2,8.674286306E-2,-1.771509275E-2,9.385482663E-2
1.792187191E0,-4.398229718E-2,9.590584040E-2,-5.497787148E-3,1.056531985E-1
1.794412921E0,-5.558873713E-2,9.285151958E-2,2.443460980E-3,1.082473228E-1
1.796302191E0,-6.047565863E-2,8.979719132E-2,8.552113548E-3,1.086000898E-1
1.798516729E0,-6.658431143E-2,8.185594529E-2,1.893682219E-2,1.072029363E-1
1.800400575E0,-7.269296050E-2,7.024950534E-2,2.748893574E-2,1.047611622E-1
1.802668613E0,-8.185594529E-2,5.986479297E-2,3.420845419E-2,1.070252660E-1
1.804534729E0,-8.246681094E-2,5.558873713E-2,3.848451003E-2,1.066392991E-1
1.806724652E0,-8.368854225E-2,4.886921868E-2,4.886921868E-2,1.085365062E-1
1.808825421E0,-8.124507964E-2,4.153883830E-2,5.742133409E-2,1.078120942E-1
1.810785806E0,-7.635815442E-2,3.665191308E-2,5.986479297E-2,1.037194481E-1
1.812621652E0,-7.208210230E-2,2.871066704E-2,6.658431143E-2,1.022428599E-1
1.814854537E0,-6.963863969E-2,2.443460934E-2,7.452555746E-2,1.048839787E-1
1.816753191E0,-5.925392732E-2,1.527163107E-2,7.452555746E-2,9.642774151E-2
1.818958998E0,-5.619960278E-2,1.282817032E-2,7.757988572E-2,9.665193208E-2
1.820957075E0,-4.703662544E-2,1.099557430E-2,7.635815442E-2,9.035438303E-2
1.823110190E0,-3.848451003E-2,1.527163107E-2,7.147123665E-2,8.259792913E-2
1.824996652E0,-3.237585723E-2,1.649336144E-2,7.086037099E-2,7.963302883E-2
1.827166844E0,-1.954768784E-2,2.748893574E-2,6.291911751E-2,7.139025869E-2
1.829312344E0,-5.497787148E-3,4.337143153E-2,5.681046844E-2,7.168497793E-2
1.831213229E0,2.443460980E-3,5.925392732E-2,5.009094998E-2,7.762796967E-2
1.833115498E0,7.330383174E-3,6.658431143E-2,4.703662544E-2,8.185138471E-2
1.835281806E0,1.649336144E-2,8.246681094E-2,4.092797264E-2,9.353023481E-2
1.837156229E0,2.443460934E-2,9.834930301E-2,3.237585723E-2,1.063852982E-1
1.839385267E0,2.748893574E-2,1.056796908E-1,2.932153270E-2,1.130645432E-1
1.841385921E0,2.932153270E-2,1.221730486E-1,2.260201424E-2,1.276591443E-1
1.843536575E0,3.054326214E-2,1.343903542E-1,1.466076635E-2,1.385950801E-1
1.845404191E0,3.726277873E-2,1.411098689E-1,1.038470957E-2,1.463159320E-1
1.847598959E0,3.543018550E-2,1.441642046E-1,7.941247895E-3,1.486663356E-1
1.849700229E0,3.543018550E-2,1.484402567E-1,3.665191587E-3,1.526539927E-1
1.851662306E0,3.298672289E-2,1.496619880E-1,4.886921961E-3,1.533320467E-1
1.853510614E0,3.298672289E-2,1.447750628E-1,2.443460980E-3,1.485055999E-1
1.855730921E0,2.809980139E-2,1.429424733E-1,6.108652335E-3,1.458062589E-1
1.857602806E0,2.871066704E-2,1.380555481E-1,6.719517522E-3,1.411693617E-1
1.859835190E0,2.565634064E-2,1.392772794E-1,9.773843922E-3,1.419575161E-1
1.861733152E0,2.076941915E-2,1.411098689E-1,7.330383174E-3,1.428184105E-1
1.863986190E0,1.710422710E-2,1.411098689E-1,9.773843922E-3,1.424783412E-1
1.865849614E0,5.497787148E-3,1.331686229E-1,4.886921961E-3,1.333716229E-1
1.868042267E0,-3.665191587E-3,1.246165112E-1,3.665191587E-3,1.247242643E-1
1.870186921E0,-9.773843922E-3,1.172861308E-1,3.665191587E-3,1.177497267E-1
1.872088229E0,-1.832595654E-2,1.001819000E-1,1.832595794E-3,1.018607489E-1
1.873943383E0,-3.054326214E-2,8.246681094E-2,1.221730490E-3,8.794974926E-2
1.876157421E0,-4.398229718E-2,7.147123665E-2,1.221730490E-3,8.392897449E-2
1.878191575E0,-4.948008433E-2,5.253441259E-2,3.054326167E-3,7.223207155E-2
1.880260421E0,-5.864306539E-2,3.787364438E-2,6.108652335E-3,7.007665582E-2
1.882148037E0,-7.452555746E-2,6.108652335E-3,1.893682219E-2,7.713609779E-2
1.884411190E0,-8.368854225E-2,-1.404990070E-2,2.382374369E-2,8.814047071E-2
1.886392345E0,-9.896016866E-2,-4.520402849E-2,3.420845419E-2,1.140470846E-1
1.888466882E0,-1.154535338E-1,-7.330382615E-2,4.092797264E-2,1.427517718E-1
1.890566805E0,-1.288925707E-1,-1.044579595E-1,4.459316283E-2,1.717943837E-1
1.892528152E0,-1.380555481E-1,-1.203404516E-1,4.886921868E-2,1.895504133E-1
1.894429768E0,-1.484402567E-1,-1.502728462E-1,5.803219974E-2,2.190529030E-1
1.896597113E0,-1.600466967E-1,-1.777617931E-1,6.414084882E-2,2.476454092E-1
1.898474883E0,-1.643227488E-1,-1.887573600E-1,6.780604273E-2,2.592854916E-1
1.900699959E0,-1.692096740E-1,-2.052507252E-1,7.635815442E-2,2.767496011E-1
1.902566460E0,-1.704314053E-1,-2.150245607E-1,8.002334833E-2,2.858079108E-1
1.904850921E0,-1.704314053E-1,-2.174680233E-1,8.368854225E-2,2.886918377E-1
1.906732614E0,-1.679879427E-1,-2.199114859E-1,8.429940045E-2,2.892877451E-1
1.908907152E0,-1.576032341E-1,-2.193006277E-1,8.796459436E-2,2.840234402E-1
1.911053190E0,-1.472185254E-1,-2.199114859E-1,9.101892263E-2,2.798549627E-1
1.912953652E0,-1.362229437E-1,-2.162462920E-1,9.590584040E-2,2.729781665E-1
1.914809691E0,-1.288925707E-1,-2.174680233E-1,9.651670605E-2,2.705939957E-1
1.917022728E0,-1.166752651E-1,-2.131919712E-1,1.014036313E-1,2.633374840E-1
1.918912229E0,-1.081231460E-1,-2.101376504E-1,1.026253626E-1,2.576439633E-1
1.921127075E0,-1.007927656E-1,-2.070833147E-1,1.032362282E-1,2.523893810E-1
1.923019883E0,-9.346238524E-2,-1.973094791E-1,1.032362282E-1,2.415035545E-1
1.925279651E0,-8.796459436E-2,-1.832595766E-1,1.026253626E-1,2.277143107E-1
1.927173498E0,-8.491026610E-2,-1.740965992E-1,1.001819000E-1,2.180729058E-1
1.929336921E0,-8.002334833E-2,-1.716531366E-1,9.896016866E-2,2.136858689E-1
1.931438382E0,-7.880161703E-2,-1.667662114E-1,9.468411654E-2,2.073300413E-1
1.933403498E0,-7.757988572E-2,-1.624901593E-1,8.796459436E-2,2.003982545E-1
1.935403882E0,-7.696902007E-2,-1.649336219E-1,8.735372871E-2,2.018861154E-1
1.937473113E0,-8.002334833E-2,-1.673770845E-1,8.552113175E-2,2.042858014E-1
1.939413037E0,-8.063421398E-2,-1.722639948E-1,8.307767659E-2,2.075539947E-1
1.941577574E0,-8.246681094E-2,-1.740965992E-1,8.246681094E-2,2.095499360E-1
1.943612267E0,-8.246681094E-2,-1.771509200E-1,8.552113175E-2,2.133004626E-1
1.945729344E0,-7.941248268E-2,-1.875356287E-1,8.613199741E-2,2.211214042E-1
1.947631614E0,-7.574728876E-2,-1.985312104E-1,9.040805697E-2,2.309240352E-1
1.949785421E0,-7.696902007E-2,-2.083050460E-1,9.407325089E-2,2.411742083E-1
1.951930882E0,-7.696902007E-2,-2.107485086E-1,9.529497474E-2,2.437627866E-1
1.953833421E0,-7.880161703E-2,-2.180788964E-1,9.957103431E-2,2.523538999E-1
1.955697729E0,-8.368854225E-2,-2.247984111E-1,1.038470939E-1,2.613853796E-1
1.957901844E0,-8.002334833E-2,-2.266310006E-1,1.038470939E-1,2.618197197E-1
1.959776498E0,-8.429940045E-2,-2.351831198E-1,1.062905490E-1,2.715053767E-1
1.962005767E0,-8.246681094E-2,-2.443460971E-1,1.081231460E-1,2.796362008E-1
1.963886537E0,-8.491026610E-2,-2.522873580E-1,1.087340117E-1,2.875443437E-1
1.966156844E0,-8.613199741E-2,-2.583959997E-1,1.099557430E-1,2.937302828E-1
1.968086729E0,-8.857546002E-2,-2.632829249E-1,1.099557430E-1,2.987537047E-1
1.970213574E0,-8.674286306E-2,-2.718350291E-1,1.105666086E-1,3.060123891E-1
1.972314190E0,-8.796459436E-2,-2.736676335E-1,1.160643995E-1,3.100043360E-1
1.974275997E0,-8.674286306E-2,-2.736676335E-1,1.154535338E-1,3.094314406E-1
1.976172960E0,-9.285151958E-2,-2.675589919E-1,1.160643995E-1,3.060721543E-1
1.978345113E0,-9.773843735E-2,-2.559525371E-1,1.178969890E-1,2.982686765E-1
1.980279229E0,-9.957103431E-2,-2.480112910E-1,1.166752651E-1,2.916112289E-1
1.982448767E0,-1.056796908E-1,-2.296853364E-1,1.191187203E-1,2.794867087E-1
1.984333575E0,-1.093448773E-1,-2.107485086E-1,1.197295859E-1,2.659067690E-1
1.986600497E0,-1.166752651E-1,-1.960877478E-1,1.160643995E-1,2.559970062E-1
1.988485344E0,-1.215621829E-1,-1.924225539E-1,1.178969890E-1,2.563269466E-1
1.990657959E0,-1.276708394E-1,-1.789835095E-1,1.178969890E-1,2.494687154E-1
1.992804305E0,-1.331686229E-1,-1.643227488E-1,1.191187203E-1,2.427449637E-1
1.994705690E0,-1.392772794E-1,-1.533271819E-1,1.178969890E-1,2.383423699E-1
1.996649383E0,-1.423316002E-1,-1.362229437E-1,1.209513173E-1,2.311800077E-1
1.998775305E0,-1.490511149E-1,-1.227839142E-1,1.191187203E-1,2.268951167E-1
2.000669575E0,-1.502728462E-1,-1.075122803E-1,1.148426682E-1,2.175538029E-1
2.002879228E0,-1.563815027E-1,-9.957103431E-2,1.130100712E-1,2.171194175E-1
2.004771460E0,-1.594358236E-1,-9.285151958E-2,1.062905490E-1,2.129292543E-1
2.007031074E0,-1.643227488E-1,-8.368854225E-2,9.896016866E-2,2.092817547E-1
2.008914191E0,-1.679879427E-1,-8.124507964E-2,9.468411654E-2,2.092505526E-1
2.011088036E0,-1.692096740E-1,-7.941248268E-2,8.918632567E-2,2.071049417E-1
2.013188920E0,-1.716531366E-1,-7.819075137E-2,8.124507964E-2,2.053761327E-1
2.015151305E0,-1.734857261E-1,-7.635815442E-2,7.452555746E-2,2.036711163E-1
2.017088575E0,-1.728748679E-1,-7.880161703E-2,7.208210230E-2,2.032024711E-1
2.019221497E0,-1.704314053E-1,-8.552113175E-2,6.902777404E-2,2.027943823E-1
2.021181037E0,-1.685988009E-1,-8.918632567E-2,6.841690838E-2,2.026342264E-1
2.023325190E0,-1.661553532E-1,-8.918632567E-2,6.841690838E-2,2.006057712E-1
2.025220421E0,-1.655444801E-1,-8.857546002E-2,6.902777404E-2,2.000385478E-1
2.027476805E0,-1.582140923E-1,-8.918632567E-2,6.719517708E-2,1.936519855E-1
2.029359114E0,-1.551597714E-1,-8.735372871E-2,6.780604273E-2,1.905331678E-1
2.031532882E0,-1.496619880E-1,-8.368854225E-2,6.414084882E-2,1.830752065E-1
2.033678920E0,-1.478293836E-1,-8.368854225E-2,6.536258012E-2,1.820152896E-1
2.035579997E0,-1.404990107E-1,-7.269296050E-2,6.963863969E-2,1.728403270E-1
2.037434498E0,-1.356120855E-1,-6.230825558E-2,6.780604273E-2,1.639225911E-1
2.039649074E0,-1.337794960E-1,-5.742133409E-2,7.086037099E-2,1.619115664E-1
2.041525883E0,-1.295034289E-1,-4.581489414E-2,7.024950534E-2,1.542891300E-1
2.043752651E0,-1.301143020E-1,-4.031710699E-2,6.719517708E-2,1.518894089E-1
2.045658768E0,-1.282816976E-1,-3.359758854E-2,6.414084882E-2,1.473059415E-1
2.047903574E0,-1.264491081E-1,-3.176499158E-2,6.475171447E-2,1.455718934E-1
2.049802768E0,-1.282816976E-1,-2.321287990E-2,5.803219974E-2,1.426981708E-1
2.051958959E0,-1.246165112E-1,-1.527163107E-2,5.681046844E-2,1.378039437E-1
2.054059266E0,-1.246165112E-1,-1.038470957E-2,5.436700583E-2,1.363557420E-1
2.056019651E0,-1.252273768E-1,-7.330383174E-3,5.314527452E-2,1.362352767E-1
2.057883306E0,-1.227839142E-1,-3.054326167E-3,5.192354694E-2,1.333464406E-1
2.060087959E0,-1.221730486E-1,1.832595794E-3,4.581489414E-2,1.304937421E-1
2.062026960E0,-1.209513173E-1,6.108652335E-3,4.459316283E-2,1.290545890E-1
2.064191074E0,-1.209513173E-1,9.162978269E-3,3.970624134E-2,1.276313712E-1
2.066088421E0,-1.191187203E-1,1.466076635E-2,3.604105115E-2,1.253122698E-1
2.068341728E0,-1.136209369E-1,1.954768784E-2,3.359758854E-2,1.200859165E-1
2.070281844E0,-1.136209369E-1,1.954768784E-2,3.237585723E-2,1.197498456E-1
2.072397305E0,-1.087340117E-1,2.565634064E-2,3.176499158E-2,1.161479565E-1
2.074542536E0,-1.007927656E-1,3.298672289E-2,2.871066704E-2,1.098708692E-1
2.076443074E0,-9.773843735E-2,3.848451003E-2,2.687807009E-2,1.084264281E-1
2.078318075E0,-9.224065393E-2,4.703662544E-2,2.809980139E-2,1.072864447E-1
2.080511689E0,-8.429940045E-2,6.108652428E-2,3.115412779E-2,1.086670697E-1
2.082404806E0,-8.124507964E-2,7.513642311E-2,2.626720630E-2,1.137374660E-1
2.084615382E0,-7.513642311E-2,8.552113175E-2,2.748893574E-2,1.171110056E-1
2.086499267E0,-6.963863969E-2,1.032362282E-1,2.626720630E-2,1.272683192E-1
2.088766459E0,-6.536258012E-2,1.154535338E-1,2.626720630E-2,1.352470017E-1
2.090649844E0,-5.986479297E-2,1.233947799E-1,2.626720630E-2,1.396425124E-1
2.092829997E0,-5.375614017E-2,1.362229437E-1,2.443460934E-2,1.484704116E-1
2.094930382E0,-4.886921868E-2,1.472185254E-1,2.199114859E-2,1.566687760E-1
2.096892920E0,-4.153883830E-2,1.576032341E-1,2.076941915E-2,1.643034487E-1
2.098758152E0,-4.031710699E-2,1.643227488E-1,1.893682219E-2,1.702528652E-1
2.100961766E0,-3.420845419E-2,1.734857261E-1,1.893682219E-2,1.778373379E-1
2.102876460E0,-2.748893574E-2,1.808161139E-1,1.710422710E-2,1.836917615E-1
2.105065689E0,-2.504547499E-2,1.905899495E-1,1.160643995E-2,1.925785920E-1
2.106971767E0,-2.199114859E-2,1.893682331E-1,9.773843922E-3,1.908912422E-1
2.109217843E0,-1.954768784E-2,1.991420686E-1,6.108652335E-3,2.001923855E-1
2.111117306E0,-1.221730467E-2,2.070833147E-1,3.054326167E-3,2.074658783E-1
2.113273920E0,-1.099557430E-2,2.113593817E-1,1.221730490E-3,2.116487267E-1
2.115419805E0,-7.941247895E-3,2.162462920E-1,-1.221730490E-3,2.163955056E-1
2.117320843E0,-4.886921961E-3,2.229658216E-1,-5.497787148E-3,2.230871249E-1
2.119184575E0,0.000000000E0,2.266310006E-1,-6.719517522E-3,2.267305942E-1
2.121390305E0,3.054326167E-3,2.284636050E-1,-7.941247895E-3,2.286219831E-1
2.123289075E0,8.552113548E-3,2.327396572E-1,-1.404990070E-2,2.333201371E-1
2.125494497E0,1.343903504E-2,2.357939780E-1,-1.466076635E-2,2.366312443E-1
2.127380344E0,1.832595654E-2,2.370157093E-1,-1.466076635E-2,2.381747787E-1
2.129646497E0,2.565634064E-2,2.400700450E-1,-1.466076635E-2,2.418818149E-1
2.131539883E0,3.848451003E-2,2.461786866E-1,-1.588249579E-2,2.496743017E-1
2.133703881E0,4.886921868E-2,2.504547536E-1,-1.710422710E-2,2.557505401E-1
2.135804535E0,5.497787148E-2,2.510656118E-1,-1.893682219E-2,2.577112940E-1
2.137765458E0,6.414084882E-2,2.571742535E-1,-1.893682219E-2,2.657277712E-1
2.139620883E0,7.269296050E-2,2.706133127E-1,-2.260201424E-2,2.811168486E-1
2.141834612E0,8.185594529E-2,2.834414840E-1,-2.626720630E-2,2.961915541E-1
2.143869497E0,8.246681094E-2,2.901609838E-1,-2.809980139E-2,3.029583639E-1
2.145938151E0,8.918632567E-2,3.097086847E-1,-3.543018550E-2,3.242359759E-1
2.147873844E0,8.796459436E-2,3.298672438E-1,-4.031710699E-2,3.437668359E-1
2.150088420E0,8.979719132E-2,3.420845270E-1,-4.214970022E-2,3.561768612E-1
2.151993037E0,8.735372871E-2,3.695734739E-1,-5.253441259E-2,3.833733051E-1
2.154144112E0,8.735372871E-2,4.019493461E-1,-5.803219974E-2,4.154054488E-1
2.156289881E0,8.429940045E-2,4.331034720E-1,-5.986479297E-2,4.452738481E-1
2.158191420E0,8.124507964E-2,4.520402849E-1,-5.986479297E-2,4.631684095E-1
2.160045921E0,7.757988572E-2,4.862487316E-1,-6.414084882E-2,4.965586734E-1
2.162260651E0,7.452555746E-2,5.167919993E-1,-6.230825558E-2,5.258425126E-1
2.164148306E0,7.391469181E-2,5.302310586E-1,-6.047565863E-2,5.387630856E-1
2.166366035E0,7.330382615E-2,5.571091175E-1,-5.497787148E-2,5.645941782E-1
2.168266883E0,7.391469181E-2,5.736024380E-1,-4.520402849E-2,5.801090783E-1
2.170518266E0,6.963863969E-2,5.852088928E-1,-3.604105115E-2,5.904387739E-1
2.172401729E0,7.269296050E-2,5.882632136E-1,-2.932153270E-2,5.934624060E-1
2.174574266E0,7.330382615E-2,5.907067060E-1,-1.466076635E-2,5.954181737E-1
2.176674381E0,7.330382615E-2,5.821545720E-1,-2.443460980E-3,5.867566507E-1
2.178638843E0,7.330382615E-2,5.595525503E-1,4.276056774E-3,5.643498845E-1
2.180484114E0,7.269296050E-2,5.485569835E-1,6.719517522E-3,5.533933344E-1
2.182707458E0,7.330382615E-2,5.119050741E-1,9.162978269E-3,5.172080974E-1
2.184742997E0,7.086037099E-2,4.679227769E-1,1.343903504E-2,4.734485453E-1
2.186811497E0,6.902777404E-2,4.404338300E-1,1.160643995E-2,4.459613231E-1
2.188737729E0,6.536258012E-2,3.769038618E-1,7.941247895E-3,3.826118808E-1
2.190961766E0,6.108652428E-2,3.170390725E-1,3.054326167E-3,3.228849112E-1
2.192935690E0,5.681046844E-2,2.620611787E-1,-8.552113548E-3,2.682846051E-1
2.195016727E0,5.253441259E-2,2.431243658E-1,-1.404990070E-2,2.491319359E-1
2.197161997E0,4.886921868E-2,2.131919712E-1,-2.932153270E-2,2.206779767E-1
2.199062920E0,4.398229718E-2,1.973094791E-1,-4.886921868E-2,2.079751753E-1
2.200991421E0,4.092797264E-2,1.960877478E-1,-5.986479297E-2,2.090676857E-1
2.203130727E0,3.970624134E-2,2.046398520E-1,-7.696902007E-2,2.222122515E-1
2.205009229E0,4.214970022E-2,2.266310006E-1,-9.162978828E-2,2.480609316E-1
2.207233612E0,4.520402849E-2,2.620611787E-1,-1.044579595E-1,2.857112719E-1
2.209135844E0,4.886921868E-2,2.803871334E-1,-1.117883399E-1,3.057806044E-1
2.211384497E0,4.825835302E-2,3.249803185E-1,-1.178969890E-1,3.490569812E-1
2.213297998E0,5.375614017E-2,3.659082949E-1,-1.203404516E-1,3.889221351E-1
2.215440573E0,6.047565863E-2,3.976732790E-1,-1.197295859E-1,4.196862112E-1
2.217540920E0,6.230825558E-2,4.105014503E-1,-1.209513173E-1,4.324615365E-1
2.219502112E0,7.086037099E-2,4.331034720E-1,-1.117883399E-1,4.528757474E-1
2.221436152E0,7.513642311E-2,4.392121136E-1,-1.044579595E-1,4.576726211E-1
2.223571112E0,7.941248268E-2,4.392121136E-1,-1.020144969E-1,4.578434020E-1
2.225493344E0,8.307767659E-2,4.324925840E-1,-9.346238524E-2,4.502076776E-1
2.227675535E0,8.307767659E-2,4.147774875E-1,-8.429940045E-2,4.313335756E-1
2.229575037E0,8.124507964E-2,3.915646076E-1,-7.452555746E-2,4.067894586E-1
2.231826381E0,7.574728876E-2,3.750712574E-1,-7.269296050E-2,3.894873122E-1
2.233725883E0,6.902777404E-2,3.329215646E-1,-6.658431143E-2,3.464607803E-1
2.235882227E0,5.192354694E-2,2.846632004E-1,-6.047565863E-2,2.956120729E-1
2.238027343E0,3.481931984E-2,2.296853364E-1,-5.986479297E-2,2.398990042E-1
2.239927573E0,2.260201424E-2,2.021963894E-1,-5.925392732E-2,2.119086097E-1
2.241787690E0,-1.221730490E-3,1.453859210E-1,-5.619960278E-2,1.558748023E-1
2.243996612E0,-2.626720630E-2,8.735372871E-2,-5.314527452E-2,1.055701674E-1
2.245890152E0,-3.726277873E-2,6.169738993E-2,-5.314527452E-2,8.955167674E-2
2.248100458E0,-6.047565863E-2,1.343903504E-2,-4.886921868E-2,7.890572529E-2
2.249994037E0,-7.757988572E-2,-2.138028294E-2,-4.276056588E-2,9.112749948E-2
2.252251227E0,-8.796459436E-2,-4.764748737E-2,-3.726277873E-2,1.067547076E-1
2.254133037E0,-9.529497474E-2,-5.742133409E-2,-3.481931984E-2,1.165792728E-1
2.256306996E0,-1.014036313E-1,-6.902777404E-2,-2.932153270E-2,1.261240750E-1
2.258422573E0,-1.056796908E-1,-7.086037099E-2,-2.260201424E-2,1.292294095E-1
2.260350343E0,-1.044579595E-1,-7.269296050E-2,-2.199114859E-2,1.291485286E-1
2.262284344E0,-1.014036313E-1,-6.719517708E-2,-1.954768784E-2,1.232071441E-1
2.264418650E0,-9.773843735E-2,-6.169738993E-2,-1.710422710E-2,1.168414509E-1
2.266320767E0,-8.796459436E-2,-5.925392732E-2,-1.771509275E-2,1.075296344E-1
2.268522458E0,-8.246681094E-2,-5.619960278E-2,-1.588249579E-2,1.010515904E-1
2.270424190E0,-7.269296050E-2,-5.314527452E-2,-1.710422710E-2,9.165828547E-2
2.272674112E0,-6.108652428E-2,-4.948008433E-2,-1.832595654E-2,8.071977996E-2
2.274568767E0,-4.886921868E-2,-5.253441259E-2,-1.954768784E-2,7.436516080E-2
2.276730150E0,-4.398229718E-2,-4.825835302E-2,-1.832595654E-2,6.781704642E-2
2.278875419E0,-3.176499158E-2,-5.070181563E-2,-1.466076635E-2,6.160054276E-2
2.280776381E0,-2.321287990E-2,-5.681046844E-2,-1.343903504E-2,6.282415761E-2
2.282673190E0,-2.199114859E-2,-5.925392732E-2,-1.160643995E-2,6.426000286E-2
2.284845189E0,-2.015855350E-2,-6.597344577E-2,-6.719517522E-3,6.931100015E-2
2.286740652E0,-1.832595654E-2,-7.757988572E-2,-2.443460980E-3,7.975242851E-2
2.288948765E0,-2.076941915E-2,-9.101892263E-2,1.832595794E-3,9.337650376E-2
2.290846844E0,-2.260201424E-2,-9.957103431E-2,3.665191587E-3,1.021698368E-1
2.293099842E0,-2.871066704E-2,-1.172861308E-1,8.552113548E-3,1.210515490E-1
2.294985998E0,-3.665191308E-2,-1.350012124E-1,1.466076635E-2,1.406542859E-1
2.297156227E0,-4.153883830E-2,-1.435533315E-1,1.649336144E-2,1.503498089E-1
2.299256689E0,-5.131268129E-2,-1.631010175E-1,1.893682219E-2,1.720277199E-1
2.301216804E0,-5.864306539E-2,-1.826487035E-1,2.382374369E-2,1.933057908E-1
2.303087537E0,-6.658431143E-2,-1.979203373E-1,2.809980139E-2,2.107024663E-1
2.305286227E0,-7.086037099E-2,-2.046398520E-1,2.504547499E-2,2.180044427E-1
2.307207575E0,-7.819075137E-2,-2.174680233E-1,2.871066704E-2,2.328742948E-1
2.309390650E0,-8.124507964E-2,-2.278527319E-1,2.809980139E-2,2.435307563E-1
2.311302152E0,-8.307767659E-2,-2.339613885E-1,2.687807009E-2,2.497243726E-1
2.313542458E0,-8.185594529E-2,-2.406809032E-1,2.748893574E-2,2.557016514E-1
2.315468883E0,-8.429940045E-2,-2.455678284E-1,2.504547499E-2,2.608394585E-1
2.317598496E0,-8.063421398E-2,-2.492330223E-1,2.260201424E-2,2.629255159E-1
2.319743612E0,-7.880161703E-2,-2.535090744E-1,1.832595654E-2,2.661059683E-1
2.321644573E0,-7.452555746E-2,-2.577851415E-1,1.588249579E-2,2.688112564E-1
2.323506344E0,-6.841690838E-2,-2.645046413E-1,1.221730467E-2,2.734827986E-1
2.325713650E0,-6.230825558E-2,-2.687807083E-1,6.719517522E-3,2.759901081E-1
2.327611460E0,-5.864306539E-2,-2.663372457E-1,6.108652335E-3,2.727853610E-1
2.329817727E0,-5.558873713E-2,-2.675589919E-1,-1.221730490E-3,2.732753455E-1
2.331703806E0,-5.009094998E-2,-2.651155293E-1,-4.886921961E-3,2.698503829E-1
2.333968919E0,-4.825835302E-2,-2.632829249E-1,-1.160643995E-2,2.679206536E-1
2.335864921E0,-4.581489414E-2,-2.651155293E-1,-1.343903504E-2,2.693805042E-1
2.338033265E0,-4.276056588E-2,-2.638937831E-1,-1.954768784E-2,2.680494485E-1
2.340133650E0,-4.214970022E-2,-2.632829249E-1,-2.504547499E-2,2.678092074E-1
2.342096342E0,-4.581489414E-2,-2.651155293E-1,-2.932153270E-2,2.706381360E-1
2.344047537E0,-4.581489414E-2,-2.626720667E-1,-3.359758854E-2,2.687460085E-1
2.346164919E0,-5.009094998E-2,-2.669481039E-1,-3.848451003E-2,2.743199792E-1
2.348152037E0,-4.948008433E-2,-2.687807083E-1,-3.848451003E-2,2.759934880E-1
2.350267611E0,-5.009094998E-2,-2.693915665E-1,-4.031710699E-2,2.769591820E-1
2.352167729E0,-5.436700583E-2,-2.718350291E-1,-4.398229718E-2,2.806857617E-1
2.354417958E0,-5.803219974E-2,-2.687807083E-1,-4.948008433E-2,2.793905584E-1
2.356298652E0,-6.047565863E-2,-2.681698501E-1,-5.314527452E-2,2.799942749E-1
2.358474150E0,-6.414084882E-2,-2.638937831E-1,-5.803219974E-2,2.777079643E-1
2.360619111E0,-6.780604273E-2,-2.608394623E-1,-6.414084882E-2,2.770359778E-1
2.362518958E0,-6.536258012E-2,-2.571742535E-1,-6.719517708E-2,2.737262416E-1
2.364369344E0,-6.780604273E-2,-2.590068579E-1,-7.208210230E-2,2.772688972E-1
2.366587534E0,-6.291911751E-2,-2.590068579E-1,-7.696902007E-2,2.774303477E-1
2.368484190E0,-5.681046844E-2,-2.571742535E-1,-7.819075137E-2,2.747359088E-1
2.370690765E0,-5.436700583E-2,-2.577851415E-1,-8.124507964E-2,2.756985917E-1
2.372584344E0,-4.886921868E-2,-2.614503205E-1,-8.674286306E-2,2.797656071E-1
2.374841265E0,-4.337143153E-2,-2.602286041E-1,-8.674286306E-2,2.777126784E-1
2.376727267E0,-3.787364438E-2,-2.602286041E-1,-8.674286306E-2,2.769073195E-1
2.378896265E0,-3.665191308E-2,-2.571742535E-1,-8.857546002E-2,2.744586881E-1
2.380996457E0,-3.054326214E-2,-2.565633953E-1,-9.101892263E-2,2.739381516E-1
2.382957881E0,-2.565634064E-2,-2.565633953E-1,-9.285151958E-2,2.740518715E-1
2.384957650E0,-1.893682219E-2,-2.571742535E-1,-9.407325089E-2,2.744940371E-1
2.387027150E0,-1.588249579E-2,-2.565633953E-1,-9.407325089E-2,2.737276128E-1
2.389004575E0,-1.221730467E-2,-2.583959997E-1,-9.651670605E-2,2.761036576E-1
2.391130842E0,-7.941247895E-3,-2.565633953E-1,-9.651670605E-2,2.742322260E-1
2.393026652E0,-3.665191587E-3,-2.577851415E-1,-9.712757170E-2,2.755002323E-1
2.395281957E0,-1.832595794E-3,-2.547308207E-1,-9.773843735E-2,2.728441891E-1
2.397158613E0,2.443460980E-3,-2.535090744E-1,-9.957103431E-2,2.723732957E-1
2.399337727E0,4.886921961E-3,-2.541199327E-1,-1.038470939E-1,2.745633644E-1
2.401483150E0,3.665191587E-3,-2.522873580E-1,-1.032362282E-1,2.726170638E-1
2.403383611E0,8.552113548E-3,-2.504547536E-1,-1.038470939E-1,2.712654441E-1
2.405213113E0,1.038470957E-2,-2.498438805E-1,-1.056796908E-1,2.714737628E-1
2.407450611E0,1.282817032E-2,-2.504547536E-1,-1.087340117E-1,2.733408694E-1
2.409303806E0,1.282817032E-2,-2.467895597E-1,-1.105666086E-1,2.707297983E-1
2.411553227E0,1.282817032E-2,-2.382374406E-1,-1.099557430E-1,2.627011714E-1
2.413401152E0,1.343903504E-2,-2.327396572E-1,-1.117883399E-1,2.585439781E-1
2.415703342E0,1.649336144E-2,-2.284636050E-1,-1.130100712E-1,2.554191183E-1
2.417538729E0,1.771509275E-2,-2.229658216E-1,-1.111774743E-1,2.497759254E-1
2.419758380E0,2.199114859E-2,-2.138028294E-1,-1.099557430E-1,2.414239546E-1
2.421858842E0,2.260201424E-2,-2.076941878E-1,-1.123992056E-1,2.372368186E-1
2.423822380E0,2.321287990E-2,-2.058615834E-1,-1.099557430E-1,2.345380453E-1
2.425821303E0,2.504547499E-2,-1.954768747E-1,-1.093448773E-1,2.253769876E-1
2.427889880E0,2.809980139E-2,-1.863138974E-1,-1.111774743E-1,2.187759081E-1
2.429924534E0,2.809980139E-2,-1.826487035E-1,-1.111774743E-1,2.156631134E-1
2.431993034E0,2.871066704E-2,-1.692096740E-1,-1.087340117E-1,2.031730825E-1
2.433895152E0,3.115412779E-2,-1.649336219E-1,-1.105666086E-1,2.009941647E-1
2.436143073E0,3.359758854E-2,-1.576032341E-1,-1.044579595E-1,1.920391696E-1
2.438036075E0,3.543018550E-2,-1.557706445E-1,-1.062905490E-1,1.918787965E-1
2.440198842E0,3.298672289E-2,-1.490511149E-1,-1.062905490E-1,1.860162347E-1
2.442343688E0,3.420845419E-2,-1.429424733E-1,-1.056796908E-1,1.810275285E-1
2.444243996E0,3.359758854E-2,-1.386664063E-1,-1.044579595E-1,1.768293966E-1
2.446098767E0,3.359758854E-2,-1.350012124E-1,-1.062905490E-1,1.750765721E-1
2.448312649E0,3.237585723E-2,-1.301143020E-1,-1.026253626E-1,1.688487275E-1
2.450284575E0,3.298672289E-2,-1.215621829E-1,-1.026253626E-1,1.624729308E-1
2.452415149E0,3.359758854E-2,-1.191187203E-1,-1.001819000E-1,1.592309033E-1
2.454309729E0,3.115412779E-2,-1.154535338E-1,-9.651670605E-2,1.536735914E-1
2.456565996E0,3.298672289E-2,-1.099557430E-1,-9.285151958E-2,1.476475329E-1
2.458529460E0,3.054326214E-2,-1.056796908E-1,-8.979719132E-2,1.420021954E-1
2.460621688E0,3.298672289E-2,-1.020144969E-1,-8.918632567E-2,1.394606832E-1
2.462721765E0,2.932153270E-2,-9.285151958E-2,-8.307767659E-2,1.279963176E-1
2.464681842E0,3.115412779E-2,-8.552113175E-2,-8.185594529E-2,1.224125787E-1
2.466561690E0,2.748893574E-2,-8.002334833E-2,-8.002334833E-2,1.164607837E-1
2.468750726E0,2.809980139E-2,-7.391469181E-2,-7.513642311E-2,1.090800742E-1
2.470664460E0,2.871066704E-2,-6.719517708E-2,-7.208210230E-2,1.026417249E-1
2.472854342E0,2.809980139E-2,-5.864306539E-2,-7.086037099E-2,9.617588125E-2
2.474861113E0,2.809980139E-2,-5.253441259E-2,-6.719517708E-2,8.980342514E-2
2.477005188E0,2.871066704E-2,-4.214970022E-2,-6.291911751E-2,8.099206739E-2
2.478890190E0,2.748893574E-2,-3.054326214E-2,-6.108652428E-2,7.362130058E-2
2.481060611E0,2.809980139E-2,-2.138028294E-2,-5.986479297E-2,6.950186166E-2
2.483205342E0,2.809980139E-2,-1.466076635E-2,-5.803219974E-2,6.612316625E-2
2.485104765E0,2.932153270E-2,-3.054326167E-3,-5.558873713E-2,6.292208582E-2
2.486958883E0,2.993239649E-2,6.108652335E-3,-5.375614017E-2,6.183030486E-2
2.489173265E0,3.298672289E-2,1.038470957E-2,-5.070181563E-2,6.137295975E-2
2.491052536E0,3.054326214E-2,2.138028294E-2,-4.703662544E-2,6.002042564E-2
2.493276111E0,3.298672289E-2,2.687807009E-2,-4.459316283E-2,6.163687784E-2
2.495174959E0,3.237585723E-2,3.298672289E-2,-4.153883830E-2,6.214334321E-2
2.497426149E0,3.420845419E-2,3.481931984E-2,-3.848451003E-2,6.215835330E-2
2.499316729E0,3.237585723E-2,4.031710699E-2,-3.420845419E-2,6.199906117E-2
2.501481688E0,3.543018550E-2,4.459316283E-2,-3.237585723E-2,6.551369588E-2
2.503581957E0,3.604105115E-2,4.948008433E-2,-2.932153270E-2,6.787479939E-2
2.505544034E0,3.665191308E-2,4.642575979E-2,-3.054326214E-2,6.657029943E-2
2.507405498E0,3.543018550E-2,4.825835302E-2,-2.993239649E-2,6.693366149E-2
2.509612572E0,4.153883830E-2,5.070181563E-2,-2.871066704E-2,7.155733085E-2
2.511603306E0,4.153883830E-2,5.131268129E-2,-2.504547499E-2,7.060978803E-2
2.513716226E0,4.459316283E-2,5.497787148E-2,-2.443460934E-2,7.488769363E-2
2.515619729E0,4.642575979E-2,5.681046844E-2,-2.260201424E-2,7.676999117E-2
2.517867688E0,4.764748737E-2,5.681046844E-2,-1.954768784E-2,7.668001354E-2
2.519751844E0,5.131268129E-2,5.986479297E-2,-2.015855350E-2,8.138274988E-2
2.521924534E0,5.375614017E-2,5.864306539E-2,-1.649336144E-2,8.124507798E-2
2.524070495E0,5.864306539E-2,6.475171447E-2,-1.649336144E-2,8.890345672E-2
2.525972034E0,5.864306539E-2,6.414084882E-2,-1.404990070E-2,8.803668164E-2
2.527834844E0,6.352998316E-2,6.841690838E-2,-1.404990070E-2,9.441573928E-2
2.530040303E0,6.841690838E-2,6.597344577E-2,-1.160643995E-2,9.575008276E-2
2.531951921E0,6.841690838E-2,6.841690838E-2,-1.221730467E-2,9.752440330E-2
2.534144265E0,7.086037099E-2,7.024950534E-2,-1.221730467E-2,1.005258559E-1
2.536040729E0,7.208210230E-2,7.635815442E-2,-1.160643995E-2,1.056461389E-1
2.538295265E0,7.330382615E-2,8.185594529E-2,-9.773843922E-3,1.103148890E-1
2.540180536E0,7.513642311E-2,8.491026610E-2,-7.330383174E-3,1.136176478E-1
2.542351457E0,7.391469181E-2,9.529497474E-2,-4.886921961E-3,1.206996101E-1
2.544451572E0,7.391469181E-2,1.056796908E-1,-2.443460980E-3,1.289866242E-1
2.546412918E0,7.513642311E-2,1.130100712E-1,1.832595794E-3,1.357207305E-1
2.548276767E0,7.574728876E-2,1.154535338E-1,1.221730490E-3,1.380893293E-1
2.550481726E0,7.513642311E-2,1.276708394E-1,3.054326167E-3,1.481710303E-1
2.552517226E0,7.452555746E-2,1.386664063E-1,6.108652335E-3,1.575428404E-1
2.554586188E0,7.147123665E-2,1.459967941E-1,7.330383174E-3,1.627173503E-1
2.556495921E0,6.780604273E-2,1.490511149E-1,7.941247895E-3,1.639419339E-1
2.558737572E0,6.536258012E-2,1.478293836E-1,1.099557430E-2,1.620083214E-1
2.560629921E0,6.108652428E-2,1.490511149E-1,8.552113548E-3,1.613100646E-1
2.562793534E0,6.047565863E-2,1.484402567E-1,6.719517522E-3,1.604274509E-1
2.564937957E0,5.497787148E-2,1.478293836E-1,1.038470957E-2,1.580630735E-1
2.566838918E0,5.681046844E-2,1.441642046E-1,9.162978269E-3,1.552246997E-1
2.568697344E0,5.558873713E-2,1.392772794E-1,1.038470957E-2,1.503200267E-1
2.570907341E0,5.558873713E-2,1.386664063E-1,9.773843922E-3,1.497130854E-1
2.572795729E0,5.375614017E-2,1.362229437E-1,1.343903504E-2,1.470612820E-1
2.575010341E0,5.864306539E-2,1.337794960E-1,1.160643995E-2,1.465287416E-1
2.576916383E0,5.864306539E-2,1.374446750E-1,1.282817032E-2,1.499820314E-1
2.579161687E0,5.986479297E-2,1.343903542E-1,1.282817032E-2,1.476791207E-1
2.581112113E0,6.108652428E-2,1.337794960E-1,1.160643995E-2,1.475236470E-1
2.583225226E0,6.414084882E-2,1.362229437E-1,1.282817032E-2,1.511135362E-1
2.585325726E0,6.352998316E-2,1.386664063E-1,1.221730467E-2,1.530153375E-1
2.587287534E0,6.719517708E-2,1.466076523E-1,1.343903504E-2,1.618320216E-1
2.589146652E0,6.902777404E-2,1.539380401E-1,1.466076635E-2,1.693419377E-1
2.591356764E0,6.963863969E-2,1.618792862E-1,1.527163107E-2,1.768831992E-1
2.593389803E0,7.024950534E-2,1.618792862E-1,1.527163107E-2,1.771245861E-1
2.595458572E0,7.086037099E-2,1.618792862E-1,1.466076635E-2,1.773161965E-1
2.597457344E0,7.208210230E-2,1.600466967E-1,1.527163107E-2,1.761930683E-1
2.599608034E0,6.719517708E-2,1.588249654E-1,1.710422710E-2,1.733006521E-1
2.601549267E0,6.841690838E-2,1.576032341E-1,1.527163107E-2,1.724902184E-1
2.603663110E0,6.841690838E-2,1.582140923E-1,1.527163107E-2,1.730485338E-1
2.605807726E0,6.963863969E-2,1.557706445E-1,1.404990070E-2,1.712058222E-1
2.607707726E0,7.147123665E-2,1.569923609E-1,1.099557430E-2,1.728457165E-1
2.609570536E0,7.147123665E-2,1.637118906E-1,6.719517522E-3,1.787592591E-1
2.611775226E0,7.147123665E-2,1.606575549E-1,6.108652335E-3,1.759440344E-1
2.613667459E0,7.391469181E-2,1.582140923E-1,6.108652335E-3,1.747352176E-1
2.615877995E0,7.635815442E-2,1.527163088E-1,4.276056774E-3,1.707955602E-1
2.617777652E0,7.757988572E-2,1.447750628E-1,4.886921961E-3,1.643238859E-1
2.620027880E0,8.185594529E-2,1.380555481E-1,2.443460980E-3,1.605169793E-1
2.621905344E0,8.307767659E-2,1.319468915E-1,2.443460980E-3,1.559418258E-1
2.624081880E0,8.491026610E-2,1.215621829E-1,-6.108652451E-4,1.482817951E-1
2.626181303E0,9.101892263E-2,1.148426682E-1,-4.276056774E-3,1.466000251E-1
2.628140149E0,9.162978828E-2,1.044579595E-1,-7.330383174E-3,1.391445936E-1
2.629981498E0,9.712757170E-2,1.032362282E-1,-9.773843922E-3,1.420810052E-1
2.632207572E0,1.007927656E-1,9.896016866E-2,-1.099557430E-2,1.416799183E-1
2.634241495E0,1.069014147E-1,9.590584040E-2,-1.404990070E-2,1.443026070E-1
2.636309995E0,1.117883399E-1,9.285151958E-2,-1.649336144E-2,1.462534396E-1
2.638242536E0,1.172861308E-1,8.552113175E-2,-1.649336144E-2,1.460887793E-1
2.640459687E0,1.215621829E-1,7.513642311E-2,-1.954768784E-2,1.442392405E-1
2.642364921E0,1.276708394E-1,6.352998316E-2,-2.076941915E-2,1.441085382E-1
2.644514687E0,1.288925707E-1,5.742133409E-2,-2.199114859E-2,1.428079655E-1
2.646659495E0,1.350012124E-1,4.337143153E-2,-2.382374369E-2,1.437844886E-1
2.648559956E0,1.423316002E-1,3.604105115E-2,-2.687807009E-2,1.492637680E-1
2.650422113E0,1.429424733E-1,3.298672289E-2,-2.993239649E-2,1.497218184E-1
2.652627495E0,1.514945775E-1,3.359758854E-2,-3.420845419E-2,1.589013005E-1
2.654520536E0,1.533271819E-1,3.359758854E-2,-3.543018550E-2,1.609140165E-1
2.656729533E0,1.606575549E-1,3.543018550E-2,-3.970624134E-2,1.692416426E-1
2.658613652E0,1.624901593E-1,3.359758854E-2,-4.276056588E-2,1.713485215E-1
2.660879572E0,1.673770845E-1,3.176499158E-2,-4.520402849E-2,1.762597722E-1
2.662769690E0,1.710422635E-1,3.237585723E-2,-4.398229718E-2,1.795496993E-1
2.664934995E0,1.747074574E-1,2.687807009E-2,-4.703662544E-2,1.829141068E-1
2.667034995E0,1.771509200E-1,2.382374369E-2,-4.642575979E-2,1.846763937E-1
2.668998995E0,1.771509200E-1,1.893682219E-2,-4.581489414E-2,1.839566694E-1
2.670855767E0,1.783726513E-1,1.160643995E-2,-4.703662544E-2,1.848349435E-1
2.673066226E0,1.753183305E-1,9.773843922E-3,-4.886921868E-2,1.822642191E-1
2.674986421E0,1.765400618E-1,8.552113548E-3,-4.581489414E-2,1.825884350E-1
2.677168072E0,1.753183305E-1,7.330383174E-3,-4.276056588E-2,1.806065268E-1
2.679081036E0,1.740965992E-1,7.941247895E-3,-4.276056588E-2,1.794468035E-1
2.681318456E0,1.716531366E-1,5.497787148E-3,-4.153883830E-2,1.766932372E-1
2.683232498E0,1.722639948E-1,6.108652335E-3,-3.970624134E-2,1.768863622E-1
2.685374456E0,1.673770845E-1,7.941247895E-3,-3.787364438E-2,1.717922139E-1
2.687519687E0,1.631010175E-1,7.941247895E-3,-3.665191308E-2,1.673570078E-1
2.689420418E0,1.606575549E-1,6.719517522E-3,-3.359758854E-2,1.642705080E-1
2.691323344E0,1.576032341E-1,2.443460980E-3,-3.726277873E-2,1.619668625E-1
2.693489495E0,1.582140923E-1,-1.221730490E-3,-3.543018550E-2,1.621372556E-1
2.695388382E0,1.569923609E-1,1.221730490E-3,-3.543018550E-2,1.609453077E-1
2.697593610E0,1.514945775E-1,0.000000000E0,-3.359758854E-2,1.551754007E-1
2.699476421E0,1.521054506E-1,-4.886921961E-3,-3.604105115E-2,1.563934381E-1
2.701745918E0,1.496619880E-1,-7.330383174E-3,-3.543018550E-2,1.539731899E-1
2.703623459E0,1.466076523E-1,-1.404990070E-2,-3.665191308E-2,1.517714273E-1
2.705802918E0,1.447750628E-1,-1.954768784E-2,-3.604105115E-2,1.504688947E-1
2.707903764E0,1.429424733E-1,-3.359758854E-2,-3.665191308E-2,1.513430255E-1
2.709864033E0,1.417207420E-1,-4.092797264E-2,-3.481931984E-2,1.515660011E-1
2.711785921E0,1.392772794E-1,-5.986479297E-2,-3.359758854E-2,1.552763728E-1
2.713931456E0,1.356120855E-1,-7.819075137E-2,-3.298672289E-2,1.599767333E-1
2.715837344E0,1.307251602E-1,-9.712757170E-2,-3.054326214E-2,1.656976873E-1
2.718034879E0,1.270599663E-1,-1.026253626E-1,-2.993239649E-2,1.660486328E-1
2.719940036E0,1.209513173E-1,-1.209513173E-1,-2.993239649E-2,1.736501962E-1
2.722185072E0,1.130100712E-1,-1.301143020E-1,-2.504547499E-2,1.741501755E-1
2.724067575E0,1.069014147E-1,-1.362229437E-1,-2.321287990E-2,1.747095894E-1
2.726241418E0,1.056796908E-1,-1.398881376E-1,-2.015855350E-2,1.764745176E-1
2.728385187E0,9.834930301E-2,-1.435533315E-1,-1.343903504E-2,1.745300892E-1
2.730285725E0,8.918632567E-2,-1.429424733E-1,-5.497787148E-3,1.685733580E-1
2.732131805E0,8.368854225E-2,-1.435533315E-1,-1.221730490E-3,1.661710676E-1
2.734353533E0,7.757988572E-2,-1.472185254E-1,4.886921961E-3,1.664806742E-1
2.736332267E0,6.597344577E-2,-1.502728462E-1,1.343903504E-2,1.646664250E-1
2.738457187E0,5.314527452E-2,-1.551597714E-1,2.076941915E-2,1.653189150E-1
2.740340305E0,4.886921868E-2,-1.606575549E-1,2.687807009E-2,1.700631680E-1
2.742608533E0,3.665191308E-2,-1.685988009E-1,2.993239649E-2,1.751138680E-1
2.744508613E0,2.809980139E-2,-1.759291887E-1,3.848451003E-2,1.822683072E-1
2.746665302E0,1.832595654E-2,-1.783726513E-1,4.276056588E-2,1.843396578E-1
2.748765764E0,1.282817032E-2,-1.802052408E-1,4.581489414E-2,1.863799756E-1
2.750727956E0,6.719517522E-3,-1.832595766E-1,4.764748737E-2,1.894716532E-1
2.752705421E0,-6.108652451E-4,-1.826487035E-1,5.009094998E-2,1.893938365E-1
2.754796764E0,-3.054326167E-3,-1.814269722E-1,5.192354694E-2,1.887356083E-1
2.756698305E0,-6.719517522E-3,-1.789835095E-1,4.703662544E-2,1.851828630E-1
2.758899879E0,-1.099557430E-2,-1.704314053E-1,4.703662544E-2,1.771446039E-1
2.760822805E0,-1.282817032E-2,-1.655444801E-1,4.153883830E-2,1.711578568E-1
2.763051110E0,-1.710422710E-2,-1.618792862E-1,3.787364438E-2,1.671283064E-1
2.764947729E0,-1.893682219E-2,-1.569923609E-1,3.054326214E-2,1.610530828E-1
2.767107687E0,-2.443460934E-2,-1.502728462E-1,1.954768784E-2,1.534962232E-1
2.769252956E0,-3.359758854E-2,-1.447750628E-1,9.162978269E-3,1.489045900E-1
2.771153841E0,-3.726277873E-2,-1.429424733E-1,2.443460980E-3,1.477397572E-1
2.773019305E0,-4.214970022E-2,-1.374446750E-1,-6.719517522E-3,1.439193796E-1
2.775222648E0,-4.948008433E-2,-1.319468915E-1,-1.588249579E-2,1.418115461E-1
2.777100536E0,-5.375614017E-2,-1.325577646E-1,-2.015855350E-2,1.444563978E-1
2.779325110E0,-6.047565863E-2,-1.319468915E-1,-2.260201424E-2,1.468949915E-1
2.781234729E0,-6.963863969E-2,-1.374446750E-1,-2.504547499E-2,1.561020648E-1
2.783476225E0,-7.635815442E-2,-1.380555481E-1,-1.771509275E-2,1.587568159E-1
2.785367382E0,-7.880161703E-2,-1.386664063E-1,-1.588249579E-2,1.602820038E-1
2.787531917E0,-8.429940045E-2,-1.398881376E-1,-1.038470957E-2,1.636548873E-1
2.789632610E0,-8.796459436E-2,-1.429424733E-1,6.108652451E-4,1.678412753E-1
2.791592340E0,-8.796459436E-2,-1.435533315E-1,6.108652335E-3,1.684714946E-1
2.793460767E0,-9.040805697E-2,-1.429424733E-1,1.588249579E-2,1.698776651E-1
2.795674379E0,-8.857546002E-2,-1.404990107E-1,3.298672289E-2,1.693331273E-1
2.797560036E0,-8.552113175E-2,-1.368338168E-1,4.276056588E-2,1.669305945E-1
2.799763648E0,-8.185594529E-2,-1.337794960E-1,4.398229718E-2,1.628858244E-1
2.801734190E0,-7.513642311E-2,-1.295034289E-1,5.497787148E-2,1.594966662E-1
2.803913456E0,-7.147123665E-2,-1.215621829E-1,6.414084882E-2,1.549178830E-1
2.805812690E0,-6.658431143E-2,-1.178969890E-1,6.963863969E-2,1.522586966E-1
2.807968340E0,-5.986479297E-2,-1.130100712E-1,7.635815442E-2,1.489484387E-1
2.810112917E0,-5.619960278E-2,-1.099557430E-1,8.002334833E-2,1.471475349E-1
2.812013533E0,-5.253441259E-2,-1.007927656E-1,8.063421398E-2,1.393589702E-1
2.813856228E0,-5.009094998E-2,-9.896016866E-2,8.246681094E-2,1.382135781E-1
2.816081302E0,-4.520402849E-2,-9.651670605E-2,8.491026610E-2,1.362667679E-1
2.817963536E0,-4.337143153E-2,-9.407325089E-2,8.491026610E-2,1.339425657E-1
2.820184225E0,-4.337143153E-2,-9.224065393E-2,8.613199741E-2,1.334471442E-1
2.822065998E0,-4.520402849E-2,-9.285151958E-2,8.185594529E-2,1.317771022E-1
2.824334725E0,-4.581489414E-2,-8.857546002E-2,8.002334833E-2,1.278606778E-1
2.826229152E0,-4.948008433E-2,-8.368854225E-2,7.269296050E-2,1.213932344E-1
2.828397956E0,-5.009094998E-2,-8.246681094E-2,6.719517708E-2,1.175800578E-1
2.830497610E0,-5.375614017E-2,-7.757988572E-2,5.986479297E-2,1.117683082E-1
2.832458763E0,-5.742133409E-2,-6.414084882E-2,4.948008433E-2,9.929520049E-2
2.834329344E0,-6.230825558E-2,-5.253441259E-2,3.848451003E-2,9.012902270E-2
2.836526879E0,-6.352998316E-2,-4.642575979E-2,3.298672289E-2,8.532018413E-2
2.838426844E0,-6.780604273E-2,-2.748893574E-2,2.321287990E-2,7.676026845E-2
2.840630302E0,-7.269296050E-2,-9.773843922E-3,1.404990070E-2,7.468061489E-2
2.842548998E0,-7.513642311E-2,-6.108652451E-4,5.497787148E-3,7.533976970E-2
2.844781417E0,-7.391469181E-2,2.076941915E-2,-4.886921961E-3,7.693264874E-2
2.846746344E0,-7.391469181E-2,3.604105115E-2,-1.832595654E-2,8.425069564E-2
2.848837186E0,-7.452555746E-2,5.009094998E-2,-3.176499158E-2,9.524797465E-2
2.850981994E0,-7.391469181E-2,5.558873713E-2,-3.787364438E-2,9.993949319E-2
2.852882648E0,-7.086037099E-2,6.841690838E-2,-5.192354694E-2,1.113468466E-1
2.854868767E0,-6.414084882E-2,8.368854225E-2,-6.291911751E-2,1.227869535E-1
2.856950456E0,-6.047565863E-2,8.918632567E-2,-6.841690838E-2,1.276416050E-1
2.858850036E0,-5.314527452E-2,1.044579595E-1,-7.941248268E-2,1.415705758E-1
2.861053686E0,-4.092797264E-2,1.160643995E-1,-9.040805697E-2,1.527077619E-1
2.863024190E0,-2.748893574E-2,1.246165112E-1,-9.590584040E-2,1.596334760E-1
2.865204956E0,-2.382374369E-2,1.276708394E-1,-1.014036313E-1,1.647729057E-1
2.867126498E0,-1.160643995E-2,1.319468915E-1,-1.087340117E-1,1.713702918E-1
2.869260417E0,2.443460980E-3,1.374446750E-1,-1.111774743E-1,1.767977374E-1
2.871360802E0,1.282817032E-2,1.453859210E-1,-1.136209369E-1,1.849630917E-1
2.873322302E0,2.199114859E-2,1.490511149E-1,-1.130100712E-1,1.883377861E-1
2.875204421E0,3.420845419E-2,1.612684280E-1,-1.081231460E-1,1.971505488E-1
2.877391032E0,4.398229718E-2,1.704314053E-1,-1.020144969E-1,2.034410577E-1
2.879295421E0,4.764748737E-2,1.740965992E-1,-1.007927656E-1,2.067343477E-1
2.881494186E0,5.681046844E-2,1.808161139E-1,-9.040805697E-2,2.099893168E-1
2.883443613E0,6.414084882E-2,1.850921661E-1,-8.368854225E-2,2.130186155E-1
2.885644994E0,7.147123665E-2,1.912008226E-1,-7.391469181E-2,2.170927772E-1
2.887535228E0,7.452555746E-2,1.936442852E-1,-6.963863969E-2,2.188645884E-1
2.889700532E0,7.941248268E-2,1.973094791E-1,-5.986479297E-2,2.209551230E-1
2.891845263E0,8.552113175E-2,2.034181207E-1,-5.436700583E-2,2.272632112E-1
2.893745532E0,8.979719132E-2,2.034181207E-1,-4.764748737E-2,2.274043765E-1
2.895626844E0,8.857546002E-2,2.052507252E-1,-4.459316283E-2,2.279517986E-1
2.897813609E0,9.162978828E-2,2.076941878E-1,-3.848451003E-2,2.302475868E-1
2.899709613E0,9.712757170E-2,2.113593817E-1,-3.115412779E-2,2.346851787E-1
2.901917340E0,9.529497474E-2,2.168571651E-1,-2.565634064E-2,2.382570253E-1
2.903863152E0,1.020144969E-1,2.241875380E-1,-2.321287990E-2,2.473981560E-1
2.906067302E0,1.069014147E-1,2.345722616E-1,-9.773843922E-3,2.579681887E-1
2.907949344E0,1.136209369E-1,2.492330223E-1,-3.665191587E-3,2.739347556E-1
2.910122955E0,1.178969890E-1,2.577851415E-1,1.832595794E-3,2.834717580E-1
2.912222186E0,1.221730486E-1,2.712241709E-1,3.054326167E-3,2.974863587E-1
2.914185263E0,1.282816976E-1,2.919935882E-1,5.497787148E-3,3.189775465E-1
2.916046575E0,1.343903542E-1,3.042109013E-1,6.719517522E-3,3.326412356E-1
2.918253994E0,1.423316002E-1,3.207042515E-1,9.162978269E-3,3.509892613E-1
2.920144690E0,1.490511149E-1,3.353650272E-1,1.099557430E-2,3.671605085E-1
2.922356994E0,1.588249654E-1,3.426954150E-1,9.162978269E-3,3.778220180E-1
2.924273844E0,1.618792862E-1,3.451388776E-1,9.162978269E-3,3.813262492E-1
2.926507340E0,1.692096740E-1,3.426954150E-1,1.160643995E-2,3.823699396E-1
2.928408228E0,1.740965992E-1,3.353650272E-1,1.343903504E-2,3.781004298E-1
2.930562801E0,1.820378453E-1,3.188716471E-1,1.527163107E-2,3.674916695E-1
2.932707725E0,1.875356287E-1,3.121521473E-1,1.282817032E-2,3.643804839E-1
2.934608186E0,1.936442852E-1,2.987131178E-1,1.527163107E-2,3.563156728E-1
2.936464075E0,2.003637999E-1,2.883284092E-1,1.343903504E-2,3.513680855E-1
2.938675725E0,2.021963894E-1,2.779437006E-1,1.466076635E-2,3.440218287E-1
2.940567075E0,2.058615834E-1,2.602286041E-1,1.221730467E-2,3.320349084E-1
2.942778917E0,2.083050460E-1,2.370157093E-1,8.552113548E-3,3.156589572E-1
2.944719690E0,2.083050460E-1,2.107485086E-1,9.162978269E-3,2.964622846E-1
2.946929763E0,2.089159191E-1,1.973094791E-1,7.330383174E-3,2.874554336E-1
2.948808690E0,2.064724565E-1,1.698205322E-1,1.221730490E-3,2.673413194E-1
2.950985417E0,2.064724565E-1,1.478293836E-1,1.221730490E-3,2.539407304E-1
2.953085994E0,2.058615834E-1,1.337794960E-1,0.000000000E0,2.455115986E-1
2.955046109E0,2.058615834E-1,1.282816976E-1,-6.108652451E-4,2.425604226E-1
2.957022190E0,2.064724565E-1,1.185078546E-1,-3.054326167E-3,2.380846820E-1
2.959114801E0,2.052507252E-1,1.130100712E-1,-6.108652335E-3,2.343852641E-1
2.961149301E0,2.058615834E-1,1.142318025E-1,-8.552113548E-3,2.355865761E-1
2.963217494E0,1.997529417E-1,1.172861308E-1,-1.099557430E-2,2.319012222E-1
2.965166651E0,1.966986060E-1,1.215621829E-1,-1.404990070E-2,2.316573021E-1
2.967368186E0,1.924225539E-1,1.264491081E-1,-1.160643995E-2,2.305439777E-1
2.969263844E0,1.875356287E-1,1.313360333E-1,-1.404990070E-2,2.293821383E-1
2.971424763E0,1.814269722E-1,1.417207420E-1,-1.160643995E-2,2.305107902E-1
2.973569417E0,1.759291887E-1,1.514945775E-1,-1.099557430E-2,2.324275997E-1
2.975471917E0,1.710422635E-1,1.557706445E-1,-1.038470957E-2,2.315767514E-1
2.977352767E0,1.618792862E-1,1.679879427E-1,-8.552113548E-3,2.334480474E-1
2.979540686E0,1.490511149E-1,1.771509200E-1,-7.941247895E-3,2.316500523E-1
2.981436844E0,1.356120855E-1,1.838704348E-1,-7.941247895E-3,2.286089192E-1
2.983643763E0,1.307251602E-1,1.893682331E-1,-6.719517522E-3,2.302054455E-1
2.985526305E0,1.166752651E-1,1.954768747E-1,-1.160643995E-2,2.279452467E-1
2.987794301E0,1.038470939E-1,2.021963894E-1,-1.404990070E-2,2.277388823E-1
2.989714421E0,9.407325089E-2,2.040289938E-1,-1.282817032E-2,2.250381497E-1
2.991850186E0,8.063421398E-2,2.138028294E-1,-1.404990070E-2,2.289343269E-1
2.993950570E0,6.841690838E-2,2.193006277E-1,-1.404990070E-2,2.301543794E-1
2.995912109E0,5.497787148E-2,2.309070677E-1,-1.099557430E-2,2.376163776E-1
2.997757421E0,5.131268129E-2,2.388483137E-1,-1.099557430E-2,2.445453145E-1
2.999980570E0,4.153883830E-2,2.565633953E-1,-9.162978269E-3,2.600657822E-1
3.002014609E0,2.932153270E-2,2.657263875E-1,-5.497787148E-3,2.673957572E-1
3.004083186E0,2.199114859E-2,2.638937831E-1,-3.665191587E-3,2.648338592E-1
3.005979998E0,1.832595654E-2,2.565633953E-1,-2.443460980E-3,2.572286667E-1
3.008234186E0,1.038470957E-2,2.437352389E-1,-1.221730490E-3,2.439594259E-1
3.010195075E0,-1.832595794E-3,2.296853364E-1,-3.665191587E-3,2.297218879E-1
3.012290070E0,-5.497787148E-3,2.217440903E-1,-5.497787148E-3,2.218803572E-1
3.014435878E0,-1.588249579E-2,2.095267773E-1,-8.552113548E-3,2.103018372E-1
3.016336532E0,-2.260201424E-2,1.966986060E-1,-1.160643995E-2,1.983328064E-1
3.018221613E0,-3.237585723E-2,1.875356287E-1,-1.099557430E-2,1.906271513E-1
3.020404570E0,-3.420845419E-2,1.814269722E-1,-1.527163107E-2,1.852543853E-1
3.022343074E0,-3.726277873E-2,1.747074574E-1,-1.771509275E-2,1.795133278E-1
3.024507455E0,-4.153883830E-2,1.728748679E-1,-2.443460934E-2,1.794665573E-1
3.026355767E0,-4.459316283E-2,1.673770845E-1,-2.809980139E-2,1.754800200E-1
3.028657993E0,-4.642575979E-2,1.631010175E-1,-3.848451003E-2,1.738917784E-1
3.030497728E0,-5.070181563E-2,1.563815027E-1,-5.131268129E-2,1.722174201E-1
3.032713301E0,-5.192354694E-2,1.441642046E-1,-6.414084882E-2,1.661126759E-1
3.034813647E0,-5.070181563E-2,1.435533315E-1,-6.963863969E-2,1.674149731E-1
3.036774109E0,-4.948008433E-2,1.398881376E-1,-8.185594529E-2,1.694619885E-1
3.038638882E0,-4.642575979E-2,1.417207420E-1,-9.346238524E-2,1.759981174E-1
3.040842147E0,-4.214970022E-2,1.380555481E-1,-1.001819000E-1,1.757052778E-1
3.042740228E0,-3.909537569E-2,1.386664063E-1,-1.050688252E-1,1.783151106E-1
3.044944224E0,-3.787364438E-2,1.343903542E-1,-1.050688252E-1,1.747416329E-1
3.046825959E0,-3.543018550E-2,1.301143020E-1,-1.087340117E-1,1.732285050E-1
3.049095840E0,-3.420845419E-2,1.264491081E-1,-1.093448773E-1,1.706338111E-1
3.050968844E0,-3.298672289E-2,1.221730486E-1,-1.087340117E-1,1.668456262E-1
3.053152032E0,-3.359758854E-2,1.105666086E-1,-1.075122803E-1,1.578374585E-1
3.055297801E0,-3.665191308E-2,1.032362282E-1,-1.087340117E-1,1.543507915E-1
3.057198570E0,-3.909537569E-2,9.834930301E-2,-1.099557430E-1,1.526148722E-1
3.059053113E0,-4.031710699E-2,8.979719132E-2,-1.075122803E-1,1.457665775E-1
3.061267570E0,-4.520402849E-2,8.063421398E-2,-1.093448773E-1,1.431837381E-1
3.063201382E0,-4.764748737E-2,7.819075137E-2,-1.075122803E-1,1.412195705E-1
3.065370993E0,-5.436700583E-2,7.147123665E-2,-1.087340117E-1,1.410212547E-1
3.067255690E0,-6.047565863E-2,6.536258012E-2,-1.081231460E-1,1.400720774E-1
3.069522070E0,-6.536258012E-2,6.352998316E-2,-1.069014147E-1,1.404857221E-1
3.071516186E0,-6.963863969E-2,6.230825558E-2,-1.069014147E-1,1.419851095E-1
3.073585186E0,-7.819075137E-2,5.742133409E-2,-1.062905490E-1,1.439051216E-1
3.075685609E0,-8.613199741E-2,5.436700583E-2,-1.044579595E-1,1.458970788E-1
3.077647609E0,-9.346238524E-2,5.314527452E-2,-1.050688252E-1,1.503299560E-1
3.079507998E0,-9.651670605E-2,5.314527452E-2,-1.050688252E-1,1.522476692E-1
3.081716186E0,-1.075122803E-1,5.070181563E-2,-1.044579595E-1,1.582435776E-1
3.083621728E0,-1.148426682E-1,4.948008433E-2,-1.038470939E-1,1.625464121E-1
3.085819609E0,-1.197295859E-1,5.009094998E-2,-1.020144969E-1,1.650794797E-1
3.087714190E0,-1.252273768E-1,4.825835302E-2,-1.056796908E-1,1.708185048E-1
3.089970916E0,-1.343903542E-1,4.642575979E-2,-1.062905490E-1,1.775212643E-1
3.091860574E0,-1.441642046E-1,4.581489414E-2,-1.081231460E-1,1.859379927E-1
3.094026685E0,-1.490511149E-1,4.398229718E-2,-1.093448773E-1,1.900183663E-1
3.096171762E0,-1.557706445E-1,3.970624134E-2,-1.093448773E-1,1.944154868E-1
3.098070993E0,-1.631010175E-1,3.909537569E-2,-1.056796908E-1,1.982387131E-1
3.099936498E0,-1.637118906E-1,3.970624134E-2,-1.056796908E-1,1.988626807E-1
3.102139955E0,-1.716531366E-1,4.031710699E-2,-1.056796908E-1,2.055686393E-1
3.104043613E0,-1.777617931E-1,3.909537569E-2,-1.062905490E-1,2.107733008E-1
3.106242878E0,-1.814269722E-1,3.787364438E-2,-1.050688252E-1,2.130483917E-1
3.108136267E0,-1.832595766E-1,3.604105115E-2,-1.032362282E-1,2.134027849E-1
3.110393532E0,-1.838704348E-1,3.176499158E-2,-1.001819000E-1,2.117870736E-1
3.112272574E0,-1.893682331E-1,2.565634064E-2,-9.834930301E-2,2.149212901E-1
3.114448801E0,-1.881465018E-1,2.260201424E-2,-9.468411654E-2,2.118372939E-1
3.116548993E0,-1.912008226E-1,1.710422710E-2,-9.346238524E-2,2.135076734E-1
3.118508724E0,-1.912008226E-1,9.162978269E-3,-9.101892263E-2,2.119579180E-1
3.120389305E0,-1.936442852E-1,3.054326167E-3,-9.040805697E-2,2.137312679E-1
3.122578378E0,-1.924225539E-1,0.000000000E0,-8.979719132E-2,2.123440011E-1
3.124480998E0,-1.942551434E-1,-5.497787148E-3,-8.674286306E-2,2.128135585E-1
3.126681070E0,-1.954768747E-1,-1.466076635E-2,-8.857546002E-2,2.151087138E-1
3.128599074E0,-1.966986060E-1,-1.893682219E-2,-8.491026610E-2,2.150783535E-1
3.130832416E0,-1.979203373E-1,-2.199114859E-2,-8.796459436E-2,2.177012641E-1
3.132716305E0,-2.034181207E-1,-2.626720630E-2,-9.224065393E-2,2.248938332E-1
3.134887339E0,-2.028072625E-1,-2.809980139E-2,-9.162978828E-2,2.243131799E-1
3.137032378E0,-2.052507252E-1,-2.687807009E-2,-8.979719132E-2,2.256409236E-1
3.138932762E0,-2.052507252E-1,-2.626720630E-2,-9.162978828E-2,2.263047600E-1
3.140774344E0,-2.083050460E-1,-2.687807009E-2,-9.162978828E-2,2.291493856E-1
3.143001724E0,-2.070833147E-1,-2.443460934E-2,-9.468411654E-2,2.290101117E-1
3.144953651E0,-2.095267773E-1,-2.321287990E-2,-9.224065393E-2,2.301057288E-1
3.147106185E0,-2.058615834E-1,-2.260201424E-2,-8.918632567E-2,2.254862374E-1
3.148989613E0,-2.046398520E-1,-2.443460934E-2,-8.674286306E-2,2.236042117E-1
3.151257801E0,-2.003637999E-1,-2.260201424E-2,-8.429940045E-2,2.185472312E-1
3.153149113E0,-2.009746730E-1,-1.832595654E-2,-8.002334833E-2,2.170953619E-1
3.155314262E0,-1.979203373E-1,-1.404990070E-2,-7.819075137E-2,2.132689692E-1
3.157414493E0,-1.985312104E-1,-1.099557430E-2,-7.757988572E-2,2.134342588E-1
3.159378762E0,-1.997529417E-1,-7.330383174E-3,-7.635815442E-2,2.139755593E-1
3.161378570E0,-1.985312104E-1,-3.665191587E-3,-7.330382615E-2,2.116637099E-1
3.163447993E0,-2.009746730E-1,3.054326167E-3,-7.269296050E-2,2.137391275E-1
3.165366382E0,-1.985312104E-1,2.443460980E-3,-7.391469181E-2,2.118584284E-1
3.167552301E0,-1.991420686E-1,4.886921961E-3,-7.086037099E-2,2.114299829E-1
3.169429651E0,-2.009746730E-1,7.941247895E-3,-7.269296050E-2,2.138647917E-1
3.171703416E0,-2.015855312E-1,1.282817032E-2,-7.147123665E-2,2.142648502E-1
3.173594767E0,-2.028072625E-1,1.282817032E-2,-7.147123665E-2,2.154146823E-1
3.175758493E0,-2.015855312E-1,1.649336144E-2,-6.780604273E-2,2.133223308E-1
3.177903493E0,-2.015855312E-1,2.015855350E-2,-6.352998316E-2,2.123185165E-1
3.179804224E0,-2.009746730E-1,2.321287990E-2,-6.047565863E-2,2.111562509E-1
3.181775190E0,-2.003637999E-1,2.626720630E-2,-5.681046844E-2,2.099120001E-1
3.183873031E0,-2.021963894E-1,2.504547499E-2,-5.192354694E-2,2.102539190E-1
3.185749305E0,-1.997529417E-1,2.443460934E-2,-4.581489414E-2,2.063911151E-1
3.187977685E0,-1.966986060E-1,2.382374369E-2,-4.214970022E-2,2.025697648E-1
3.189869190E0,-1.954768747E-1,2.382374369E-2,-4.031710699E-2,2.010080805E-1
3.192130647E0,-1.954768747E-1,2.809980139E-2,-3.237585723E-2,2.001224713E-1
3.194006074E0,-1.924225539E-1,2.565634064E-2,-2.748893574E-2,1.960620531E-1
3.196188377E0,-1.899790913E-1,2.076941915E-2,-2.932153270E-2,1.933472942E-1
3.198289685E0,-1.912008226E-1,1.588249579E-2,-2.748893574E-2,1.938186003E-1
3.200251647E0,-1.887573600E-1,1.221730467E-2,-2.748893574E-2,1.911393342E-1
3.202120305E0,-1.857030392E-1,9.162978269E-3,-2.565634064E-2,1.876907743E-1
3.204321531E0,-1.814269722E-1,7.330383174E-3,-2.687807009E-2,1.835535655E-1
3.206203497E0,-1.777617931E-1,7.330383174E-3,-2.626720630E-2,1.798414739E-1
3.208425647E0,-1.734857261E-1,4.886921961E-3,-2.626720630E-2,1.755310380E-1
3.210307074E0,-1.661553532E-1,3.665191587E-3,-2.138028294E-2,1.675653649E-1
3.212577223E0,-1.612684280E-1,5.497787148E-3,-1.893682219E-2,1.624694887E-1
3.214428190E0,-1.551597714E-1,1.099557430E-2,-9.773843922E-3,1.558556555E-1
3.216633493E0,-1.502728462E-1,1.466076635E-2,-1.221730490E-3,1.509912547E-1
3.218778993E0,-1.435533315E-1,2.443460934E-2,6.719517522E-3,1.457729777E-1
3.220678993E0,-1.423316002E-1,2.382374369E-2,8.552113548E-3,1.445648430E-1
3.222541767E0,-1.386664063E-1,3.481931984E-2,9.773843922E-3,1.433048683E-1
