"Time (s)","Gyroscope x (rad/s)","Gyroscope y (rad/s)","Gyroscope z (rad/s)","Absolute (rad/s)"
3.583983000E-3,3.665191587E-3,1.227839142E-1,-1.808161139E-1,2.185950372E-1
6.379538000E-3,-7.330383174E-3,1.093448773E-1,-1.649336219E-1,1.980230702E-1
8.827137000E-3,-1.588249579E-2,9.346238524E-2,-1.539380401E-1,1.807882500E-1
1.067673100E-2,-2.565634064E-2,7.391469181E-2,-1.417207420E-1,1.618839034E-1
1.284221400E-2,-3.115412779E-2,6.414084882E-2,-1.343903542E-1,1.521361083E-1
1.467984600E-2,-3.848451003E-2,5.009094998E-2,-1.252273768E-1,1.402571092E-1
1.706183000E-2,-4.764748737E-2,3.481931984E-2,-1.136209369E-1,1.280327512E-1
1.874646100E-2,-5.803219974E-2,2.138028294E-2,-1.050688252E-1,1.219192796E-1
2.105367600E-2,-6.475171447E-2,1.771509275E-2,-9.896016866E-2,1.195814535E-1
2.296761500E-2,-7.147123665E-2,7.330383174E-3,-9.040805697E-2,1.154793876E-1
2.522736800E-2,-7.757988572E-2,-2.443460980E-3,-8.124507964E-2,1.123626812E-1
2.706788400E-2,-8.185594529E-2,-5.497787148E-3,-7.757988572E-2,1.129126216E-1
2.933036800E-2,-8.613199741E-2,-1.282817032E-2,-7.330382615E-2,1.138276498E-1
3.121015400E-2,-8.674286306E-2,-1.954768784E-2,-6.352998316E-2,1.092817238E-1
3.343671400E-2,-8.491026610E-2,-2.321287990E-2,-5.558873713E-2,1.041090715E-1
3.520665400E-2,-8.185594529E-2,-2.871066704E-2,-5.131268129E-2,1.007853632E-1
3.752382900E-2,-8.307767659E-2,-4.031710699E-2,-4.276056588E-2,1.017636254E-1
3.934084600E-2,-7.941248268E-2,-5.558873713E-2,-3.909537569E-2,1.045222393E-1
4.164732900E-2,-7.391469181E-2,-7.208210230E-2,-3.359758854E-2,1.085725983E-1
4.339084600E-2,-7.452555746E-2,-7.941248268E-2,-2.809980139E-2,1.124722186E-1
4.568767600E-2,-6.780604273E-2,-8.857546002E-2,-2.076941915E-2,1.134664722E-1
4.751476900E-2,-6.536258012E-2,-9.712757170E-2,-1.404990070E-2,1.179128143E-1
4.990494500E-2,-5.803219974E-2,-9.712757170E-2,-7.330383174E-3,1.133809327E-1
5.177230700E-2,-5.375614017E-2,-9.712757170E-2,-3.054326167E-3,1.110532156E-1
5.391163700E-2,-4.886921868E-2,-1.026253626E-1,1.832595794E-3,1.136816783E-1
5.580507700E-2,-4.153883830E-2,-1.044579595E-1,4.886921961E-3,1.125203200E-1
5.812971400E-2,-3.543018550E-2,-1.069014147E-1,4.276056774E-3,1.127009102E-1
5.982400000E-2,-3.115412779E-2,-1.032362282E-1,4.276056774E-3,1.079193364E-1
6.212217600E-2,-2.382374369E-2,-9.896016866E-2,5.497787148E-3,1.019358200E-1
6.398019200E-2,-1.649336144E-2,-9.468411654E-2,4.886921961E-3,9.623406311E-2
6.629379100E-2,-1.221730467E-2,-9.346238524E-2,2.443460980E-3,9.428918543E-2
6.804511500E-2,-7.330383174E-3,-9.224065393E-2,6.108652451E-4,9.253348535E-2
7.039721400E-2,-3.054326167E-3,-8.918632567E-2,-3.665191587E-3,8.931384677E-2
7.233688400E-2,1.832595794E-3,-8.796459436E-2,-7.941247895E-3,8.834133623E-2
7.451090600E-2,4.276056774E-3,-8.613199741E-2,-1.038470957E-2,8.686108353E-2
7.629169200E-2,1.466076635E-2,-8.246681094E-2,-1.221730467E-2,8.464617836E-2
7.859871400E-2,1.771509275E-2,-7.819075137E-2,-1.954768784E-2,8.252108950E-2
8.037580700E-2,2.565634064E-2,-7.086037099E-2,-2.443460934E-2,7.922430262E-2
8.272217500E-2,2.932153270E-2,-6.963863969E-2,-2.687807009E-2,8.019802410E-2
8.447830700E-2,3.604105115E-2,-6.169738993E-2,-3.115412779E-2,7.794937441E-2
8.676252200E-2,4.153883830E-2,-5.803219974E-2,-3.481931984E-2,7.940778506E-2
8.858153800E-2,4.337143153E-2,-5.619960278E-2,-3.848451003E-2,8.074982315E-2
9.097990600E-2,5.131268129E-2,-4.764748737E-2,-3.909537569E-2,8.019802188E-2
9.283750000E-2,5.009094998E-2,-3.970624134E-2,-4.031710699E-2,7.557220380E-2
9.499606000E-2,5.497787148E-2,-3.604105115E-2,-4.276056588E-2,7.842187013E-2
9.684753800E-2,5.681046844E-2,-3.298672289E-2,-4.153883830E-2,7.772405225E-2
9.921513700E-2,6.108652428E-2,-2.809980139E-2,-4.153883830E-2,7.903567153E-2
1.009181920E-1,6.414084882E-2,-2.748893574E-2,-4.214970022E-2,8.152476497E-2
1.032083680E-1,6.536258012E-2,-2.565634064E-2,-4.276056588E-2,8.221302019E-2
1.050311920E-1,6.475171447E-2,-2.687807009E-2,-4.337143153E-2,8.243965218E-2
1.073831750E-1,6.475171447E-2,-2.504547499E-2,-4.398229718E-2,8.218578228E-2
1.091306920E-1,6.230825558E-2,-2.565634064E-2,-4.764748737E-2,8.252787155E-2
1.114867910E-1,6.047565863E-2,-2.443460934E-2,-4.948008433E-2,8.186961686E-2
1.134258070E-1,5.864306539E-2,-2.382374369E-2,-4.825835302E-2,7.959553077E-2
1.155948290E-1,5.314527452E-2,-2.382374369E-2,-5.253441259E-2,7.843376488E-2
1.173809230E-1,4.886921868E-2,-2.321287990E-2,-5.253441259E-2,7.541155637E-2
1.196832140E-1,4.581489414E-2,-2.138028294E-2,-5.131268129E-2,7.203549323E-2
1.214637300E-1,4.092797264E-2,-2.443460934E-2,-5.497787148E-2,7.276479527E-2
1.238067910E-1,3.359758854E-2,-2.138028294E-2,-5.681046844E-2,6.937826589E-2
1.255517300E-1,3.176499158E-2,-2.199114859E-2,-5.925392732E-2,7.073650549E-2
1.278468290E-1,2.932153270E-2,-2.015855350E-2,-5.925392732E-2,6.911691155E-2
1.296594230E-1,2.687807009E-2,-1.710422710E-2,-5.925392732E-2,6.727565042E-2
1.320634450E-1,2.321287990E-2,-1.343903504E-2,-5.864306539E-2,6.448608047E-2
1.338856920E-1,2.199114859E-2,-1.099557430E-2,-5.742133409E-2,6.246377253E-2
1.360685980E-1,2.138028294E-2,-9.162978269E-3,-5.864306539E-2,6.308792109E-2
1.379338460E-1,2.443460934E-2,-3.054326167E-3,-6.047565863E-2,6.529689371E-2
1.402880210E-1,2.015855350E-2,1.221730490E-3,-6.169738993E-2,6.491862467E-2
1.419973070E-1,1.954768784E-2,3.054326167E-3,-5.803219974E-2,6.131212943E-2
1.442810210E-1,1.893682219E-2,7.941247895E-3,-5.864306539E-2,6.213433649E-2
1.461086150E-1,1.893682219E-2,1.404990070E-2,-5.803219974E-2,6.263975695E-2
1.484523290E-1,1.954768784E-2,1.771509275E-2,-5.558873713E-2,6.153084029E-2
1.502475000E-1,1.954768784E-2,1.954768784E-2,-5.558873713E-2,6.208326583E-2
1.525561750E-1,1.832595654E-2,2.626720630E-2,-5.497787148E-2,6.362682738E-2
1.544847690E-1,1.893682219E-2,2.565634064E-2,-5.558873713E-2,6.408555801E-2
1.566643670E-1,2.199114859E-2,2.871066704E-2,-5.864306539E-2,6.889791098E-2
1.584626150E-1,2.138028294E-2,3.054326214E-2,-5.803219974E-2,6.897639863E-2
1.607519830E-1,2.076941915E-2,3.237585723E-2,-6.047565863E-2,7.167196237E-2
1.625442300E-1,2.321287990E-2,3.481931984E-2,-6.230825558E-2,7.505692201E-2
1.648748670E-1,1.954768784E-2,3.665191308E-2,-6.475171447E-2,7.693022396E-2
1.666354610E-1,1.954768784E-2,3.787364438E-2,-6.230825558E-2,7.549068653E-2
1.689146750E-1,1.832595654E-2,3.909537569E-2,-6.658431143E-2,7.935842495E-2
1.707301920E-1,1.893682219E-2,4.398229718E-2,-6.475171447E-2,8.053465233E-2
1.731316750E-1,1.954768784E-2,4.153883830E-2,-6.719517708E-2,8.138045840E-2
1.749946150E-1,1.954768784E-2,4.337143153E-2,-6.658431143E-2,8.183314549E-2
1.771465980E-1,2.015855350E-2,4.459316283E-2,-6.841690838E-2,8.411771991E-2
1.790082300E-1,1.588249579E-2,4.459316283E-2,-6.780604273E-2,8.269500151E-2
1.813648670E-1,1.710422710E-2,4.031710699E-2,-6.963863969E-2,8.226520430E-2
1.830810000E-1,1.832595654E-2,3.787364438E-2,-7.147123665E-2,8.293606748E-2
1.853569830E-1,2.015855350E-2,3.359758854E-2,-7.086037099E-2,8.097133698E-2
1.871783840E-1,1.893682219E-2,3.115412779E-2,-7.024950534E-2,7.914654707E-2
1.895304830E-1,2.076941915E-2,3.237585723E-2,-7.147123665E-2,8.116466332E-2
1.912893840E-1,1.954768784E-2,2.687807009E-2,-7.208210230E-2,7.937488408E-2
1.936343670E-1,2.260201424E-2,2.565634064E-2,-7.330382615E-2,8.088602965E-2
1.955203460E-1,2.199114859E-2,2.443460934E-2,-6.963863969E-2,7.700779758E-2
1.977419060E-1,2.260201424E-2,1.893682219E-2,-7.024950534E-2,7.618692331E-2
1.995398460E-1,2.199114859E-2,1.649336144E-2,-6.841690838E-2,7.373272639E-2
2.018298290E-1,2.199114859E-2,1.038470957E-2,-6.841690838E-2,7.261078544E-2
2.036148840E-1,2.382374369E-2,1.160643995E-2,-6.719517708E-2,7.223207068E-2
2.059528290E-1,2.565634064E-2,7.330383174E-3,-6.719517708E-2,7.229919886E-2
2.077834230E-1,2.687807009E-2,6.719517522E-3,-6.352998316E-2,6.930830634E-2
2.099921370E-1,2.565634064E-2,4.276056774E-3,-6.230825558E-2,6.751926533E-2
2.118241150E-1,2.748893574E-2,1.221730490E-3,-6.291911751E-2,6.867277162E-2
2.142087900E-1,3.237585723E-2,-1.221730490E-3,-5.925392732E-2,6.753307826E-2
2.160308460E-1,3.787364438E-2,-4.276056774E-3,-5.925392732E-2,7.045371178E-2
2.182148670E-1,4.092797264E-2,-7.330383174E-3,-5.497787148E-2,6.893039833E-2
2.202500980E-1,3.909537569E-2,-9.162978269E-3,-5.742133409E-2,7.006866760E-2
2.224330210E-1,4.581489414E-2,-9.773843922E-3,-5.436700583E-2,7.176561762E-2
2.241508840E-1,4.948008433E-2,-1.160643995E-2,-5.314527452E-2,7.353508277E-2
2.264256750E-1,5.314527452E-2,-1.343903504E-2,-5.436700583E-2,7.720621211E-2
2.284614440E-1,5.558873713E-2,-1.466076635E-2,-5.070181563E-2,7.665324438E-2
2.305580210E-1,5.742133409E-2,-1.343903504E-2,-5.192354694E-2,7.857399060E-2
2.322788840E-1,5.864306539E-2,-1.588249579E-2,-5.070181563E-2,7.913240108E-2
2.346267130E-1,6.169738993E-2,-1.466076635E-2,-4.764748737E-2,7.932079833E-2
2.365207300E-1,6.414084882E-2,-1.588249579E-2,-5.192354694E-2,8.403783009E-2
2.387352130E-1,7.024950534E-2,-1.771509275E-2,-4.886921868E-2,8.739003402E-2
2.405379610E-1,7.269296050E-2,-1.710422710E-2,-5.009094998E-2,8.992176800E-2
2.428238290E-1,7.391469181E-2,-1.588249579E-2,-5.070181563E-2,9.102916811E-2
2.446057690E-1,8.002334833E-2,-1.404990070E-2,-4.886921868E-2,9.481211168E-2
2.469487520E-1,8.246681094E-2,-1.160643995E-2,-5.131268129E-2,9.781858523E-2
2.487142690E-1,8.552113175E-2,-8.552113548E-3,-4.948008433E-2,9.917298709E-2
2.509902520E-1,8.491026610E-2,-4.886921961E-3,-5.192354694E-2,9.964782999E-2
2.528073460E-1,9.224065393E-2,-1.832595794E-3,-5.314527452E-2,1.064712020E-1
2.552074060E-1,9.285151958E-2,1.221730490E-3,-5.314527452E-2,1.069921376E-1
2.570803460E-1,9.346238524E-2,6.108652335E-3,-5.253441259E-2,1.073890013E-1
2.592226360E-1,9.407325089E-2,1.099557430E-2,-5.619960278E-2,1.101320777E-1
2.610820380E-1,9.468411654E-2,1.343903504E-2,-5.864306539E-2,1.121815435E-1
2.634422520E-1,9.407325089E-2,1.649336144E-2,-6.047565863E-2,1.130447380E-1
2.651553070E-1,9.773843735E-2,1.954768784E-2,-6.352998316E-2,1.181988705E-1
2.674355980E-1,9.224065393E-2,2.015855350E-2,-6.658431143E-2,1.155343068E-1
2.692680000E-1,9.224065393E-2,2.138028294E-2,-7.086037099E-2,1.182651551E-1
2.716111750E-1,8.735372871E-2,1.954768784E-2,-7.330382615E-2,1.156989064E-1
2.735824060E-1,8.613199741E-2,2.076941915E-2,-7.513642311E-2,1.161704430E-1
2.757155980E-1,8.002334833E-2,1.710422710E-2,-8.124507964E-2,1.153128520E-1
2.776369230E-1,7.941248268E-2,1.343903504E-2,-8.307767659E-2,1.157102001E-1
2.798244050E-1,7.208210230E-2,1.099557430E-2,-8.857546002E-2,1.147272602E-1
2.817526530E-1,7.391469181E-2,9.773843922E-3,-8.918632567E-2,1.162459048E-1
2.839125590E-1,6.536258012E-2,6.108652335E-3,-9.162978828E-2,1.127191227E-1
2.856823840E-1,6.291911751E-2,1.832595794E-3,-9.773843735E-2,1.162539285E-1
2.880361750E-1,5.681046844E-2,-2.443460980E-3,-1.014036313E-1,1.162587470E-1
2.897937300E-1,5.803219974E-2,-7.330383174E-3,-1.014036313E-1,1.170647990E-1
2.920755590E-1,5.436700583E-2,-1.038470957E-2,-1.050688252E-1,1.187563537E-1
2.939145380E-1,4.948008433E-2,-1.588249579E-2,-1.062905490E-1,1.183140450E-1
2.962918290E-1,4.825835302E-2,-1.466076635E-2,-1.075122803E-1,1.187547773E-1
2.980990760E-1,5.009094998E-2,-1.771509275E-2,-1.105666086E-1,1.226698933E-1
3.002975210E-1,4.825835302E-2,-2.321287990E-2,-1.111774743E-1,1.234023388E-1
3.021602300E-1,4.520402849E-2,-2.321287990E-2,-1.136209369E-1,1.244666995E-1
3.045166750E-1,4.337143153E-2,-2.382374369E-2,-1.203404516E-1,1.301171631E-1
3.062393070E-1,4.153883830E-2,-2.809980139E-2,-1.203404516E-1,1.303721528E-1
3.085085590E-1,4.153883830E-2,-3.237585723E-2,-1.203404516E-1,1.313601747E-1
3.104067690E-1,4.398229718E-2,-3.481931984E-2,-1.185078546E-1,1.311142216E-1
3.126792520E-1,4.581489414E-2,-3.420845419E-2,-1.142318025E-1,1.277424267E-1
3.144416530E-1,4.520402849E-2,-3.787364438E-2,-1.111774743E-1,1.258501010E-1
3.167825210E-1,4.764748737E-2,-3.909537569E-2,-1.099557430E-1,1.260515643E-1
3.187919610E-1,4.948008433E-2,-3.909537569E-2,-1.099557430E-1,1.267556411E-1
3.208383280E-1,5.253441259E-2,-4.214970022E-2,-1.069014147E-1,1.263502046E-1
3.226008070E-1,5.497787148E-2,-4.642575979E-2,-1.050688252E-1,1.273474599E-1
3.248905590E-1,5.742133409E-2,-4.520402849E-2,-1.020144969E-1,1.254893278E-1
3.266973460E-1,6.047565863E-2,-4.886921868E-2,-1.014036313E-1,1.277818542E-1
3.290145980E-1,5.986479297E-2,-5.070181563E-2,-9.957103431E-2,1.267630010E-1
3.307712300E-1,6.230825558E-2,-5.192354694E-2,-9.834930301E-2,1.274792487E-1
3.330559440E-1,6.169738993E-2,-5.375614017E-2,-9.773843735E-2,1.274719289E-1
3.348815760E-1,6.475171447E-2,-5.558873713E-2,-9.224065393E-2,1.256631627E-1
3.372724440E-1,6.597344577E-2,-5.497787148E-2,-8.979719132E-2,1.242521528E-1
3.391222300E-1,6.719517708E-2,-6.047565863E-2,-8.979719132E-2,1.274206917E-1
3.412872900E-1,6.780604273E-2,-6.108652428E-2,-8.979719132E-2,1.280342081E-1
3.431363070E-1,6.536258012E-2,-6.230825558E-2,-8.857546002E-2,1.264918879E-1
3.455070590E-1,6.902777404E-2,-6.780604273E-2,-9.162978828E-2,1.332610638E-1
3.472177300E-1,6.291911751E-2,-6.780604273E-2,-8.857546002E-2,1.280706325E-1
3.494998670E-1,6.475171447E-2,-6.597344577E-2,-8.674286306E-2,1.267659432E-1
3.514206530E-1,6.291911751E-2,-6.597344577E-2,-8.674286306E-2,1.258397202E-1
3.536745210E-1,6.047565863E-2,-6.658431143E-2,-8.613199741E-2,1.245371302E-1
3.554351150E-1,6.047565863E-2,-6.658431143E-2,-8.674286306E-2,1.249603941E-1
3.577770210E-1,5.986479297E-2,-6.597344577E-2,-8.674286306E-2,1.243407145E-1
3.597492900E-1,5.681046844E-2,-6.475171447E-2,-8.613199741E-2,1.218151667E-1
3.618850590E-1,5.742133409E-2,-6.352998316E-2,-8.735372871E-2,1.223271936E-1
3.638557900E-1,5.619960278E-2,-6.291911751E-2,-8.674286306E-2,1.210022107E-1
3.659735590E-1,5.803219974E-2,-6.047565863E-2,-8.857546002E-2,1.219452894E-1
3.678123070E-1,5.742133409E-2,-5.803219974E-2,-9.162978828E-2,1.227231189E-1
3.700982900E-1,5.681046844E-2,-5.253441259E-2,-8.918632567E-2,1.180741060E-1
3.718514230E-1,5.681046844E-2,-5.497787148E-2,-9.162978828E-2,1.210207163E-1
3.741381360E-1,5.558873713E-2,-5.131268129E-2,-9.346238524E-2,1.202427395E-1
3.759597300E-1,5.619960278E-2,-4.886921868E-2,-9.285151958E-2,1.190294106E-1
3.783544050E-1,5.497787148E-2,-4.764748737E-2,-9.529497474E-2,1.198915411E-1
3.802292300E-1,5.436700583E-2,-4.703662544E-2,-9.468411654E-2,1.188835455E-1
3.823609820E-1,5.558873713E-2,-4.886921868E-2,-9.468411654E-2,1.201806563E-1
3.842756530E-1,5.375614017E-2,-4.825835302E-2,-9.712757170E-2,1.210469183E-1
3.865804440E-1,5.070181563E-2,-4.825835302E-2,-9.651670605E-2,1.192267474E-1
3.882909610E-1,4.886921868E-2,-5.070181563E-2,-9.590584040E-2,1.189823721E-1
3.905727900E-1,4.764748737E-2,-5.253441259E-2,-9.712757170E-2,1.202660083E-1
3.923933460E-1,4.764748737E-2,-5.375614017E-2,-9.590584040E-2,1.198246047E-1
3.947442900E-1,4.825835302E-2,-5.742133409E-2,-9.712757170E-2,1.227185537E-1
3.965161530E-1,4.459316283E-2,-6.108652428E-2,-9.773843735E-2,1.235836387E-1
3.988471360E-1,4.214970022E-2,-6.108652428E-2,-9.773843735E-2,1.227231144E-1
4.007633840E-1,4.214970022E-2,-6.414084882E-2,-1.038470939E-1,1.291311915E-1
4.029550970E-1,4.153883830E-2,-6.841690838E-2,-1.062905490E-1,1.330564890E-1
4.048823840E-1,4.092797264E-2,-7.330382615E-2,-1.081231460E-1,1.368910683E-1
4.070429820E-1,3.848451003E-2,-8.185594529E-2,-1.099557430E-1,1.423787860E-1
4.088295380E-1,3.726277873E-2,-8.491026610E-2,-1.081231460E-1,1.424390490E-1
4.111659050E-1,3.726277873E-2,-9.468411654E-2,-1.117883399E-1,1.511629238E-1
4.129317300E-1,3.787364438E-2,-1.050688252E-1,-1.154535338E-1,1.606343346E-1
4.152058280E-1,3.787364438E-2,-1.172861308E-1,-1.209513173E-1,1.726837299E-1
4.170300760E-1,3.726277873E-2,-1.246165112E-1,-1.233947799E-1,1.792876494E-1
4.194211360E-1,3.848451003E-2,-1.380555481E-1,-1.264491081E-1,1.911276244E-1
4.212795380E-1,3.848451003E-2,-1.539380401E-1,-1.301143020E-1,2.052016309E-1
4.234353660E-1,3.726277873E-2,-1.698205322E-1,-1.350012124E-1,2.201200926E-1
4.252876150E-1,3.909537569E-2,-1.802052408E-1,-1.380555481E-1,2.303512787E-1
4.276529820E-1,4.092797264E-2,-1.936442852E-1,-1.435533315E-1,2.445010575E-1
4.293545760E-1,4.092797264E-2,-2.125810981E-1,-1.527163088E-1,2.649303554E-1
4.316438280E-1,4.398229718E-2,-2.406809032E-1,-1.594358236E-1,2.920300010E-1
4.336140760E-1,4.886921868E-2,-2.681698501E-1,-1.551597714E-1,3.136523931E-1
4.358168660E-1,5.986479297E-2,-3.237585723E-1,-1.502728462E-1,3.619189618E-1
4.376260760E-1,7.391469181E-2,-3.622430861E-1,-1.600466967E-1,4.028627312E-1
4.399192510E-1,8.307767659E-2,-3.897320330E-1,-1.740965992E-1,4.348592689E-1
4.417909610E-1,8.857546002E-2,-3.995058835E-1,-1.820378453E-1,4.478708967E-1
4.440257130E-1,9.957103431E-2,-4.105014503E-1,-1.991420686E-1,4.669939990E-1
4.459957130E-1,1.075122803E-1,-4.135557711E-1,-2.156354338E-1,4.786291953E-1
4.481122130E-1,1.105666086E-1,-4.129449129E-1,-2.254092693E-1,4.832781960E-1
4.498912300E-1,1.240056455E-1,-4.105014503E-1,-2.431243658E-1,4.929485755E-1
4.522349050E-1,1.343903542E-1,-4.031710625E-1,-2.596177161E-1,4.980050516E-1
4.540116920E-1,1.453859210E-1,-3.958406746E-1,-2.718350291E-1,5.017182364E-1
4.562739430E-1,1.551597714E-1,-3.946189582E-1,-2.797762752E-1,5.080092923E-1
4.582066920E-1,1.698205322E-1,-3.872885704E-1,-2.907718420E-1,5.132053332E-1
4.604891740E-1,1.912008226E-1,-3.811798990E-1,-3.005456924E-1,5.217121651E-1
4.623042690E-1,1.985312104E-1,-3.817907870E-1,-3.029891551E-1,5.262901050E-1
4.644947120E-1,2.174680233E-1,-3.775147200E-1,-3.121521473E-1,5.359558452E-1
4.663582690E-1,2.364048511E-1,-3.738495409E-1,-3.188716471E-1,5.452796165E-1
4.687133280E-1,2.608394623E-1,-3.744603992E-1,-3.225368559E-1,5.588271996E-1
4.704261530E-1,2.736676335E-1,-3.769038618E-1,-3.268128932E-1,5.689966272E-1
4.727047890E-1,2.993239760E-1,-3.836233616E-1,-3.384193480E-1,5.926967026E-1
4.747399430E-1,3.262020350E-1,-3.842342496E-1,-3.512475193E-1,6.143439964E-1
4.768362510E-1,3.536909819E-1,-3.830125034E-1,-3.634648323E-1,6.355332979E-1
4.785725760E-1,3.683517575E-1,-3.750712574E-1,-3.665191531E-1,6.408570472E-1
4.809039430E-1,3.903428912E-1,-3.677408695E-1,-3.726277947E-1,6.530332252E-1
4.828210380E-1,4.062253833E-1,-3.622430861E-1,-3.811798990E-1,6.644826791E-1
4.850114430E-1,4.367686510E-1,-3.549126983E-1,-3.927863538E-1,6.863024098E-1
4.869470380E-1,4.453207552E-1,-3.494149148E-1,-3.976732790E-1,6.917697555E-1
4.890986350E-1,4.703662395E-1,-3.402519524E-1,-4.111123085E-1,7.113572384E-1
4.909397690E-1,4.948008358E-1,-3.310889602E-1,-4.257730842E-1,7.319361215E-1
4.932221740E-1,5.070181489E-1,-3.255911767E-1,-4.343251884E-1,7.427754620E-1
4.949908070E-1,5.314527750E-1,-3.237585723E-1,-4.483750761E-1,7.670083924E-1
4.972612120E-1,5.583308339E-1,-3.298672438E-1,-4.691445231E-1,8.004013382E-1
4.991691530E-1,5.962044597E-1,-3.329215646E-1,-4.935791194E-1,8.425656491E-1
5.014770200E-1,6.084218025E-1,-3.353650272E-1,-5.039638281E-1,8.582693815E-1
5.033319610E-1,6.298020482E-1,-3.408628106E-1,-5.222898126E-1,8.863547393E-1
5.054901350E-1,6.560692787E-1,-3.457497358E-1,-5.338962078E-1,9.137915184E-1
5.073926920E-1,6.860016584E-1,-3.549126983E-1,-5.467243791E-1,9.462921565E-1
5.097077120E-1,6.951646209E-1,-3.616322279E-1,-5.546656251E-1,9.600446209E-1
5.114594990E-1,7.312057018E-1,-3.762930036E-1,-5.662720799E-1,9.984599498E-1
5.136995200E-1,7.531968355E-1,-3.952298164E-1,-5.888741016E-1,1.034545692E0
5.155240760E-1,7.770205736E-1,-4.050036669E-1,-6.004805565E-1,1.062245659E0
5.178726350E-1,8.026769161E-1,-4.202753007E-1,-6.310238242E-1,1.104134334E0
5.196460380E-1,8.307767510E-1,-4.361577928E-1,-6.603453159E-1,1.147379434E0
5.219764430E-1,8.570439219E-1,-4.550946057E-1,-6.994407177E-1,1.196182554E0
5.239480200E-1,8.765916228E-1,-4.795292318E-1,-7.525860071E-1,1.250898419E0
5.260829050E-1,9.181304574E-1,-5.406157374E-1,-8.491026759E-1,1.362425876E0
5.278924610E-1,9.498954415E-1,-6.126978397E-1,-9.382890463E-1,1.469042657E0
5.301694430E-1,9.847147465E-1,-6.798930168E-1,-1.047633886E0,1.590425857E0
5.319907300E-1,9.932668805E-1,-7.153232098E-1,-1.100779176E0,1.646202048E0
5.342918280E-1,1.027475357E0,-7.776314616E-1,-1.207069755E0,1.765625581E0
5.360686150E-1,1.042136073E0,-8.399397135E-1,-1.312138557E0,1.874367603E0
5.383313280E-1,1.069014192E0,-8.723155856E-1,-1.369559884E0,1.944073069E0
5.401356920E-1,1.073290229E0,-9.370672703E-1,-1.481959105E0,2.055784466E0
5.425465200E-1,1.102000952E0,-9.981538057E-1,-1.587027907E0,2.174712555E0
5.443631920E-1,1.118494272E0,-1.053742528E0,-1.703703165E0,2.294342439E0
5.465524430E-1,1.130100727E0,-1.075733662E0,-1.763567924E0,2.354676706E0
5.484106150E-1,1.164309144E0,-1.134376764E0,-1.885740995E0,2.489667755E0
5.507702120E-1,1.189965487E0,-1.199739337E0,-2.014633656E0,2.629475442E0
5.524817300E-1,1.230893493E0,-1.280373573E0,-2.154521704E0,2.792206842E0
5.547612120E-1,1.245554209E0,-1.331686258E0,-2.229047298E0,2.879834272E0
5.566820380E-1,1.297477722E0,-1.435533285E0,-2.388483047E0,3.073931606E0
5.589319430E-1,1.346957922E0,-1.547321677E0,-2.548529863E0,3.271621078E0
5.607123460E-1,1.390329242E0,-1.673770785E0,-2.718350410E0,3.481946725E0
5.630344430E-1,1.422094345E0,-1.726916075E0,-2.808758497E0,3.590782053E0
5.650572890E-1,1.467298269E0,-1.833206654E0,-2.988352776E0,3.800508276E0
5.671475970E-1,1.525330544E0,-1.943162322E0,-3.167336226E0,4.016781279E0
5.690570760E-1,1.560149789E0,-1.998751044E0,-3.254079103E0,4.125300463E0
5.712353270E-1,1.611462474E0,-2.111150265E0,-3.442836523E0,4.348205385E0
5.730423840E-1,1.666440368E0,-2.221716881E0,-3.627928734E0,4.568907560E0
5.753588270E-1,1.730581284E0,-2.332894325E0,-3.803246975E0,4.785602895E0
5.771887300E-1,1.742798567E0,-2.386650562E0,-3.863722563E0,4.864339605E0
5.793985200E-1,1.796554685E0,-2.482556343E0,-3.965737104E0,5.011762715E0
5.812436920E-1,1.834428310E0,-2.579684019E0,-4.057977676E0,5.146559986E0
5.836146350E-1,1.871080279E0,-2.666426897E0,-4.143498898E0,5.270612576E0
5.854864610E-1,1.879021525E0,-2.712241650E0,-4.183815956E0,5.328348019E0
5.876281740E-1,1.902234316E0,-2.794097662E0,-4.251622200E0,5.431553044E0
5.895077300E-1,1.932166815E0,-2.851518869E0,-4.312708855E0,5.519409944E0
5.918464040E-1,1.949270964E0,-2.903442621E0,-4.369519234E0,5.596636014E0
5.936024220E-1,1.959655762E0,-2.921768427E0,-4.396397114E0,5.630744980E0
5.958377120E-1,1.980425119E0,-2.946814060E0,-4.457483768E0,5.698680400E0
5.976786920E-1,1.973705649E0,-2.965750694E0,-4.510017872E0,5.747299572E0
6.000106350E-1,1.993253350E0,-2.953533411E0,-4.559498310E0,5.786660813E0
6.018064220E-1,1.989588141E0,-2.945592165E0,-4.588208675E0,5.804018696E0
6.041143660E-1,1.980425119E0,-2.914438009E0,-4.630969524E0,5.819098839E0
6.059929990E-1,1.981035948E0,-2.864958048E0,-4.676173687E0,5.830873725E0
6.082226350E-1,1.971873045E0,-2.841134310E0,-4.696331978E0,5.832311850E0
6.100523840E-1,1.948660135E0,-2.798984528E0,-4.736649036E0,5.836731517E0
6.123109040E-1,1.921782017E0,-2.718961239E0,-4.764138222E0,5.812315316E0
6.141406530E-1,1.910786510E0,-2.607783794E0,-4.784907341E0,5.774684378E0
6.164346350E-1,1.913229942E0,-2.549140692E0,-4.790405273E0,5.753829139E0
6.182785380E-1,1.899180055E0,-2.427578449E0,-4.792237759E0,5.697856153E0
6.204757890E-1,1.902234316E0,-2.306627274E0,-4.793459415E0,5.649449348E0
6.223288840E-1,1.900401831E0,-2.249205828E0,-4.789794445E0,5.622506985E0
6.246910200E-1,1.911397338E0,-2.115426302E0,-4.781853199E0,5.567278351E0
6.265065760E-1,1.940718889E0,-1.950492740E0,-4.767192364E0,5.504265143E0
6.286967890E-1,1.976149082E0,-1.778839588E0,-4.742146969E0,5.436671164E0
6.305659990E-1,2.000583649E0,-1.684155464E0,-4.723209858E0,5.398835608E0
6.329150960E-1,2.047620296E0,-1.496008992E0,-4.684725761E0,5.327048643E0
6.347498840E-1,2.108095884E0,-1.296866894E0,-4.638910770E0,5.257891700E0
6.369073660E-1,2.163073778E0,-1.114829063E0,-4.594317436E0,5.198988817E0
6.387617300E-1,2.200336695E0,-1.020755768E0,-4.571715355E0,5.175326578E0
6.410800960E-1,2.249816656E0,-8.570439219E-1,-4.526511669E0,5.126939356E0
6.428519220E-1,2.312124968E0,-6.908885837E-1,-4.481307507E0,5.089731414E0
6.451842120E-1,2.362215996E0,-5.442809463E-1,-4.436103344E0,5.055226903E0
6.471341920E-1,2.389704943E0,-4.783074856E-1,-4.414722919E0,5.042741935E0
6.492925190E-1,2.430632830E0,-3.475823104E-1,-4.371962547E0,5.014264246E0
6.511097690E-1,2.492330313E0,-2.156354338E-1,-4.325536728E0,4.996846707E0
6.533802120E-1,2.539977789E0,-9.162978828E-2,-4.278500080E0,4.976489337E0
6.551855380E-1,2.563190460E0,-3.115412779E-2,-4.255897999E0,4.968257611E0
6.575023660E-1,2.605951071E0,8.368854225E-2,-4.207639694E0,4.949971369E0
6.594438840E-1,2.641381264E0,1.850921661E-1,-4.159992218E0,4.931195529E0
6.615430190E-1,2.666426897E0,2.400700450E-1,-4.134335995E0,4.925464459E0
6.633920380E-1,2.681698322E0,3.799581826E-1,-4.068973541E0,4.887987295E0
6.657609040E-1,2.630996704E0,5.986479521E-1,-4.013384819E0,4.836091473E0
6.676094220E-1,2.579684019E0,7.531968355E-1,-3.977954388E0,4.800645396E0
6.697758270E-1,2.525927782E0,8.491026759E-1,-3.983452320E0,4.792617124E0
6.716508840E-1,2.398257017E0,1.103222609E0,-4.052480221E0,4.836458703E0
6.739961350E-1,2.253481865E0,1.293812633E0,-4.170988083E0,4.914191005E0
6.758218840E-1,2.059837580E0,1.378111959E0,-4.311486721E0,4.973031386E0
6.779894420E-1,1.976149082E0,1.393994451E0,-4.390899181E0,5.012821695E0
6.798871530E-1,1.729359508E0,1.350623012E0,-4.571715355E0,5.071040141E0
6.821646350E-1,1.496008992E0,1.180802464E0,-4.751920700E0,5.119871845E0
6.839496150E-1,1.348179579E0,1.047633886E0,-4.866763592E0,5.157568496E0
6.862683650E-1,1.112385631E0,8.087855577E-1,-5.125159264E0,5.306485970E0
6.882412890E-1,8.472700715E-1,6.120869517E-1,-5.395772934E0,5.496078835E0
6.903761730E-1,5.442809463E-1,4.129449129E-1,-5.663331509E0,5.704392082E0
6.923470960E-1,4.013384581E-1,3.158173263E-1,-5.793446064E0,5.815911832E0
6.944638650E-1,1.160643995E-2,1.887573600E-1,-6.015800953E0,6.018772728E0
6.964517120E-1,-4.282165468E-1,1.667662114E-1,-6.123313427E0,6.140533178E0
6.985872890E-1,-8.448266387E-1,3.011565804E-1,-6.147137165E0,6.212223649E0
7.004002680E-1,-1.032973170E0,4.074471295E-1,-6.131865501E0,6.231598612E0
7.026273650E-1,-1.400103092E0,6.621779203E-1,-6.031683445E0,6.227356859E0
7.044742300E-1,-1.737300754E0,9.297369123E-1,-5.839261055E0,6.162758660E0
7.068443270E-1,-2.072054863E0,1.197295904E0,-5.555208683E0,6.048741386E0
7.086779220E-1,-2.139250040E0,1.384220600E0,-5.401270390E0,5.972116813E0
7.108530960E-1,-2.385428667E0,1.618182063E0,-4.991990566E0,5.764438648E0
7.127419990E-1,-2.637105227E0,1.903456092E0,-4.522235394E0,5.570285632E0
7.150722120E-1,-2.703689575E0,2.245540619E0,-3.988339186E0,5.315942010E0
7.168168070E-1,-2.909551144E0,2.370157242E0,-3.704286814E0,5.273032714E0
7.190645580E-1,-2.940094471E0,2.723237276E0,-3.115412712E0,5.076019417E0
7.211002880E-1,-3.064100027E0,3.022561312E0,-2.528982162E0,4.992027307E0
7.231959810E-1,-3.057991505E0,3.119077921E0,-2.228436470E0,4.903660696E0
7.249472680E-1,-3.120910645E0,3.374419689E0,-1.630399346E0,4.876986110E0
7.272639040E-1,-3.073873997E0,3.598607063E0,-1.029307961E0,4.843361335E0
7.291551530E-1,-3.102584600E0,3.685349941E0,-7.544185519E-1,4.876164758E0
7.313715580E-1,-2.995683193E0,3.829514265E0,-2.736676335E-1,4.869721889E0
7.331833450E-1,-2.946202993E0,3.926030874E0,9.712757170E-2,4.909507538E0
7.354584040E-1,-2.869234085E0,3.973678350E0,3.597996235E-1,4.914476537E0
7.372454220E-1,-2.803871393E0,3.984673977E0,4.599815309E-1,4.893966132E0
7.395811730E-1,-2.674978971E0,3.988950014E0,6.017022729E-1,4.840380185E0
7.413608840E-1,-2.454456568E0,3.971845865E0,6.792821288E-1,4.718192539E0
7.436208270E-1,-2.142304420E0,4.004832745E0,6.774495840E-1,4.592068323E0
7.454595760E-1,-1.902845263E0,4.032932281E0,6.554583907E-1,4.507215170E0
7.478375580E-1,-1.436755061E0,4.093408108E0,5.766568184E-1,4.376389851E0
7.497144610E-1,-8.747590184E-1,4.150218487E0,4.734205604E-1,4.267744586E0
7.518505960E-1,-3.445279896E-1,4.192978859E0,3.671300113E-1,4.223097879E0
7.537232300E-1,-6.291911751E-2,4.206418037E0,3.152064681E-1,4.218680675E0
7.560684040E-1,4.361577928E-1,4.212526798E0,2.254092693E-1,4.241040554E0
7.578109610E-1,8.307767510E-1,4.180761814E0,1.514945775E-1,4.265197529E0
7.600605190E-1,1.037249207E0,4.148386002E0,1.209513173E-1,4.277805694E0
7.619720380E-1,1.373225093E0,4.062864780E0,6.291911751E-2,4.289123010E0
7.642338270E-1,1.671938181E0,3.965737104E0,2.871066704E-2,4.303867141E0
7.660133840E-1,1.872301936E0,3.849061966E0,-5.497787148E-3,4.280283026E0
7.683371730E-1,1.988366365E0,3.781255960E0,-1.588249579E-2,4.272206654E0
7.702710760E-1,2.114204645E0,3.648698092E0,-2.748893574E-2,4.217062329E0
7.724450960E-1,2.241875410E0,3.511253357E0,-3.359758854E-2,4.166057403E0
7.744151340E-1,2.316401005E0,3.365867615E0,-3.726277873E-2,4.086094337E0
7.765327110E-1,2.347555161E0,3.295618057E0,-3.420845419E-2,4.046391458E0
7.785208270E-1,2.372600555E0,3.155118942E0,-2.932153270E-2,3.947767557E0
7.806566730E-1,2.387872219E0,3.011565685E0,-2.565634064E-2,3.843451555E0
7.824426920E-1,2.393980980E0,2.939483643E0,-1.527163107E-2,3.791034455E0
7.846972500E-1,2.383596182E0,2.797152042E0,-6.108652335E-3,3.675000357E0
7.866384990E-1,2.370768070E0,2.651155233E0,1.221730490E-3,3.556566716E0
7.889150960E-1,2.329229116E0,2.501493216E0,9.162978269E-3,3.418019974E0
7.907448450E-1,2.313346624E0,2.425745964E0,1.160643995E-2,3.352006980E0
7.929225570E-1,2.254703522E0,2.267531872E0,1.160643995E-2,3.197737242E0
7.947951910E-1,2.191784382E0,2.103819847E0,1.343903504E-2,3.038117400E0
7.971419040E-1,2.108095884E0,1.932777643E0,4.276056774E-3,2.860020273E0
7.988845760E-1,2.061670303E0,1.837482691E0,-3.665191587E-3,2.761673499E0
8.011349040E-1,1.958433986E0,1.651168704E0,-1.649336144E-2,2.561658407E0
8.029993450E-1,1.841758728E0,1.458135366E0,-3.543018550E-2,2.349359329E0
8.053070960E-1,1.719585657E0,1.257771492E0,-5.925392732E-2,2.131308280E0
8.071535760E-1,1.646281838E0,1.156367898E0,-6.841690838E-2,2.012985713E0
8.094113650E-1,1.508226275E0,9.480628371E-1,-9.468411654E-2,1.783966009E0
8.113871150E-1,1.356120825E0,7.360926270E-1,-1.240056455E-1,1.547990131E0
8.134640570E-1,1.203404546E0,5.290092826E-1,-1.502728462E-1,1.323108178E0
8.152916530E-1,1.121548533E0,4.282165468E-1,-1.661553532E-1,1.211960447E0
8.175185190E-1,9.633345008E-1,2.254092693E-1,-1.973094791E-1,1.008837811E0
8.193405380E-1,7.990117669E-1,3.604105115E-2,-2.223549485E-1,8.301569033E-1
8.216422500E-1,7.214318514E-1,-5.803219974E-2,-2.339613885E-1,7.606376165E-1
8.233827680E-1,5.632177591E-1,-2.339613885E-1,-2.590068579E-1,6.625984666E-1
8.256827110E-1,4.129449129E-1,-3.940080702E-1,-2.748893499E-1,6.335061288E-1
8.275163840E-1,2.657263875E-1,-5.400048494E-1,-2.895501256E-1,6.678735102E-1
8.298987500E-1,1.942551434E-1,-6.096435189E-1,-2.974913716E-1,7.056212845E-1
8.318883650E-1,5.619960278E-2,-7.189884186E-1,-2.999348342E-1,7.810657118E-1
8.339125570E-1,-6.902777404E-2,-8.057312369E-1,-2.993239760E-1,8.623007030E-1
8.359029990E-1,-1.270599663E-1,-8.417723179E-1,-2.981022298E-1,9.019921339E-1
8.381305570E-1,-2.357939780E-1,-9.022479653E-1,-2.895501256E-1,9.764678521E-1
8.399901910E-1,-3.359758854E-1,-9.450085163E-1,-2.785545588E-1,1.040919562E0
8.421229800E-1,-4.276056588E-1,-9.779952765E-1,-2.657263875E-1,1.099969033E0
8.439900760E-1,-4.703662395E-1,-9.865473509E-1,-2.541199327E-1,1.122094922E0
8.462981340E-1,-5.455026627E-1,-9.975429177E-1,-2.339613885E-1,1.160776877E0
8.481095380E-1,-6.114761233E-1,-9.926560521E-1,-2.101376504E-1,1.184663209E0
8.504019800E-1,-6.676757336E-1,-9.773843884E-1,-1.783726513E-1,1.197032970E0
8.522895760E-1,-6.957755089E-1,-9.676105380E-1,-1.624901593E-1,1.202820337E0
8.545106340E-1,-7.379252315E-1,-9.529497623E-1,-1.362229437E-1,1.212931815E0
8.564810960E-1,-7.751879692E-1,-9.364564419E-1,-1.038470939E-1,1.220102977E0
8.585984800E-1,-8.002334833E-1,-9.260717034E-1,-7.574728876E-2,1.226262647E0
8.605718840E-1,-8.130616546E-1,-9.211847782E-1,-6.169738993E-2,1.230226490E0
8.627226720E-1,-8.307767510E-1,-9.120218158E-1,-3.359758854E-2,1.234140430E0
8.645993840E-1,-8.381071091E-1,-9.004153609E-1,-4.886921961E-3,1.230120007E0
8.667625190E-1,-8.411614299E-1,-8.936958313E-1,1.038470957E-2,1.227335583E0
8.686087300E-1,-8.442157507E-1,-8.802568316E-1,3.848451003E-2,1.220259555E0
8.709791340E-1,-8.332201838E-1,-8.558222055E-1,6.658431143E-2,1.196294693E0
8.728378840E-1,-8.179485798E-1,-8.332201838E-1,9.834930301E-2,1.171737317E0
8.749860190E-1,-8.057312369E-1,-8.216137290E-1,1.117883399E-1,1.156178437E0
8.768452300E-1,-7.819074988E-1,-7.892379165E-1,1.441642046E-1,1.120294222E0
8.792054800E-1,-7.495316267E-1,-7.525860071E-1,1.808161139E-1,1.077440404E0
8.809163450E-1,-7.128797174E-1,-7.141014934E-1,2.186897546E-1,1.032455153E0
8.831990570E-1,-6.969972253E-1,-6.921103001E-1,2.333505303E-1,1.009591140E0
8.850165760E-1,-6.579018831E-1,-6.481280327E-1,2.718350291E-1,9.627040654E-1
8.873717880E-1,-6.261368990E-1,-6.145304441E-1,3.029891551E-1,9.281689023E-1
8.891317680E-1,-6.065891981E-1,-5.925393105E-1,3.225368559E-1,9.072393913E-1
8.914755950E-1,-5.748242140E-1,-5.613851547E-1,3.512475193E-1,8.768985054E-1
8.933765380E-1,-5.430592299E-1,-5.302310586E-1,3.805690408E-1,8.490530593E-1
8.955837110E-1,-5.119050741E-1,-4.990769029E-1,4.050036669E-1,8.216766579E-1
8.975206910E-1,-4.923573732E-1,-4.838052690E-1,4.159992337E-1,8.059396279E-1
8.996719030E-1,-4.667010605E-1,-4.526511431E-1,4.386012554E-1,7.842665354E-1
9.015336530E-1,-4.386012554E-1,-4.196644127E-1,4.587597847E-1,7.608875217E-1
9.037968260E-1,-4.153883755E-1,-3.921754956E-1,4.721988440E-1,7.411618380E-1
9.055900760E-1,-4.001167417E-1,-3.811798990E-1,4.776966274E-1,7.304694314E-1
9.078387880E-1,-3.811798990E-1,-3.555235863E-1,4.874704778E-1,7.136684122E-1
9.098239610E-1,-3.628539443E-1,-3.341432810E-1,4.948008358E-1,6.986720148E-1
9.120566720E-1,-3.475823104E-1,-3.194825351E-1,4.990769029E-1,6.869936737E-1
9.140456340E-1,-3.371976018E-1,-3.097086847E-1,5.039638281E-1,6.808826860E-1
9.160716340E-1,-3.255911767E-1,-2.968805134E-1,5.088507533E-1,6.731097554E-1
9.179616910E-1,-3.066543639E-1,-2.803871334E-1,5.112941861E-1,6.588441304E-1
9.202913260E-1,-2.944370508E-1,-2.669481039E-1,5.143485069E-1,6.500068105E-1
9.220016910E-1,-2.871066630E-1,-2.608394623E-1,5.155702829E-1,6.451977818E-1
9.242862880E-1,-2.724458873E-1,-2.455678284E-1,5.198463202E-1,6.362157782E-1
9.261179990E-1,-2.571742535E-1,-2.284636050E-1,5.229006410E-1,6.259067788E-1
9.284612880E-1,-2.528982162E-1,-2.229658216E-1,5.271766782E-1,6.257687396E-1
9.302376910E-1,-2.382374406E-1,-2.046398520E-1,5.320636034E-1,6.178399673E-1
9.325654410E-1,-2.254092693E-1,-1.905899495E-1,5.345070958E-1,6.105994620E-1
9.345090760E-1,-2.162462920E-1,-1.747074574E-1,5.357288122E-1,6.035648389E-1
9.366748650E-1,-2.089159191E-1,-1.667662114E-1,5.357288122E-1,5.987171208E-1
9.385207300E-1,-1.991420686E-1,-1.539380401E-1,5.351179838E-1,5.913592312E-1
9.407630570E-1,-1.875356287E-1,-1.337794960E-1,5.400048494E-1,5.870875599E-1
9.425944220E-1,-1.777617931E-1,-1.148426682E-1,5.375614166E-1,5.777199756E-1
9.448875950E-1,-1.704314053E-1,-1.081231460E-1,5.375614166E-1,5.742035835E-1
9.466857300E-1,-1.594358236E-1,-9.224065393E-2,5.369505286E-1,5.676653858E-1
9.489273260E-1,-1.459967941E-1,-7.391469181E-2,5.351179838E-1,5.595799337E-1
9.507946910E-1,-1.429424733E-1,-6.658431143E-2,5.345070958E-1,5.572825645E-1
9.531445570E-1,-1.276708394E-1,-4.948008433E-2,5.296201706E-1,5.470334972E-1
9.549481910E-1,-1.105666086E-1,-3.848451003E-2,5.241223574E-1,5.370384325E-1
9.571505950E-1,-9.773843735E-2,-2.993239649E-2,5.155702829E-1,5.256058097E-1
9.590268070E-1,-8.796459436E-2,-2.748893574E-2,5.112941861E-1,5.195335949E-1
9.613690180E-1,-7.208210230E-2,-1.954768784E-2,5.033529401E-1,5.088635611E-1
9.631731530E-1,-5.314527452E-2,-1.710422710E-2,4.880813360E-1,4.912640485E-1
9.653616720E-1,-3.604105115E-2,-1.343903504E-2,4.776966274E-1,4.792427703E-1
9.673978260E-1,-2.382374369E-2,-1.404990070E-2,4.679227769E-1,4.687394752E-1
9.694951340E-1,-5.497787148E-3,-1.466076635E-2,4.483750761E-1,4.486483841E-1
9.712198840E-1,1.649336144E-2,-1.832595654E-2,4.294382632E-1,4.301454330E-1
9.735642110E-1,3.604105115E-2,-2.687807009E-2,4.062253833E-1,4.087058234E-1
9.755156140E-1,4.398229718E-2,-3.237585723E-2,3.946189582E-1,3.983801712E-1
9.776729030E-1,6.597344577E-2,-3.970624134E-2,3.707951903E-1,3.787058942E-1
9.796429030E-1,8.796459436E-2,-5.314527452E-2,3.426954150E-1,3.577741432E-1
9.817601720E-1,9.651670605E-2,-5.864306539E-2,3.304781020E-1,3.492424080E-1
9.836318070E-1,1.197295859E-1,-7.452555746E-2,2.993239760E-1,3.308837788E-1
9.858849800E-1,1.435533315E-1,-9.468411654E-2,2.700024247E-1,3.201155264E-1
9.878553640E-1,1.618792862E-1,-1.123992056E-1,2.437352389E-1,3.134411450E-1
9.899259030E-1,1.747074574E-1,-1.258382350E-1,2.302961946E-1,3.152686066E-1
9.918743070E-1,1.985312104E-1,-1.545489132E-1,2.034181207E-1,3.235412492E-1
9.941424410E-1,2.247984111E-1,-1.844813079E-1,1.844813079E-1,3.443850048E-1
9.960174610E-1,2.510656118E-1,-2.180788964E-1,1.643227488E-1,3.709370732E-1
9.981560570E-1,2.638937831E-1,-2.376265824E-1,1.576032341E-1,3.885165386E-1
1.000042730E0,2.932153046E-1,-2.761110961E-1,1.459967941E-1,4.284012327E-1
1.002373249E0,3.182607889E-1,-3.200933933E-1,1.368338168E-1,4.716706516E-1
1.004121691E0,3.335324228E-1,-3.414736688E-1,1.350012124E-1,4.960579310E-1
1.006365941E0,3.591887653E-1,-3.897320330E-1,1.301143020E-1,5.457447739E-1
1.008210999E0,3.897320330E-1,-4.465425014E-1,1.282816976E-1,6.064218475E-1
1.010540403E0,4.202753007E-1,-5.009095073E-1,1.264491081E-1,6.659812609E-1
1.012403807E0,4.324925840E-1,-5.265658498E-1,1.276708394E-1,6.932685429E-1
1.014643057E0,4.612032473E-1,-5.864306092E-1,1.270599663E-1,7.568048162E-1
1.016545230E0,4.893030524E-1,-6.462954283E-1,1.270599663E-1,8.205239136E-1
1.018750172E0,5.106833577E-1,-7.043276429E-1,1.331686229E-1,8.801186298E-1
1.020565807E0,5.229006410E-1,-7.367035151E-1,1.337794960E-1,9.132656256E-1
1.022837018E0,5.479460955E-1,-7.947356701E-1,1.380555481E-1,9.751456523E-1
1.024659691E0,5.638286471E-1,-8.564330935E-1,1.441642046E-1,1.035453381E0
1.026959518E0,5.821545720E-1,-9.242390990E-1,1.429424733E-1,1.101614455E0
1.028755884E0,5.937610269E-1,-9.621127844E-1,1.392772794E-1,1.139127441E0
1.030999595E0,6.096435189E-1,-1.040914416E0,1.356120855E-1,1.213902253E0
1.032889461E0,6.230825782E-1,-1.122770309E0,1.270599663E-1,1.290344645E0
1.035215595E0,6.316346526E-1,-1.158811331E0,1.227839142E-1,1.325474226E0
1.037151403E0,6.487388611E-1,-1.241889000E0,1.105666086E-1,1.405480478E0
1.039221018E0,6.579018831E-1,-1.320079803E0,1.020144969E-1,1.478462895E0
1.041105037E0,6.695083380E-1,-1.397048831E0,9.162978828E-2,1.551896539E0
1.043439210E0,6.756169796E-1,-1.431868076E0,8.796459436E-2,1.585699297E0
1.045147461E0,6.847799420E-1,-1.510058880E0,7.635815442E-2,1.659828894E0
1.047430903E0,6.933320761E-1,-1.579697490E0,6.963863969E-2,1.726558156E0
1.049326076E0,7.018841505E-1,-1.643227458E0,5.803219974E-2,1.787793494E0
1.051600787E0,7.037167549E-1,-1.673770785E0,5.192354694E-2,1.816431107E0
1.053359807E0,7.098253965E-1,-1.729359508E0,4.520402849E-2,1.869914384E0
1.055703787E0,7.134906054E-1,-1.785559058E0,3.604105115E-2,1.923171587E0
1.057652268E0,7.177666426E-1,-1.811215401E0,3.420845419E-2,1.948553412E0
1.059816441E0,7.153232098E-1,-1.857641220E0,2.871066704E-2,1.990814532E0
1.061649037E0,7.226535678E-1,-1.904066920E0,2.199114859E-2,2.036708773E0
1.063903595E0,7.238753438E-1,-1.946827531E0,1.771509275E-2,2.077124641E0
1.065862191E0,7.281513810E-1,-1.965764403E0,1.710422710E-2,2.096360341E0
1.068026326E0,7.312057018E-1,-2.004248857E0,1.649336144E-2,2.133529304E0
1.069783614E0,7.348709106E-1,-2.039068222E0,1.404990070E-2,2.167494376E0
1.072065787E0,7.385360599E-1,-2.069000483E0,1.832595654E-2,2.196937493E0
1.073888845E0,7.354817390E-1,-2.080606937E0,2.199114859E-2,2.206885187E0
1.076282633E0,7.360926270E-1,-2.105652571E0,2.626720630E-2,2.230761097E0
1.078188114E0,7.379252315E-1,-2.120313168E0,3.298672289E-2,2.245295014E0
1.080295826E0,7.415903807E-1,-2.138639212E0,4.153883830E-2,2.263947757E0
1.082258345E0,7.422012687E-1,-2.144747972E0,4.520402849E-2,2.269988985E0
1.084513979E0,7.440338731E-1,-2.156965256E0,5.619960278E-2,2.282376812E0
1.086241461E0,7.440338731E-1,-2.165517330E0,6.780604273E-2,2.290774841E0
1.088506325E0,7.452555895E-1,-2.164906502E0,7.757988572E-2,2.290904776E0
1.090328922E0,7.434229851E-1,-2.167960644E0,9.162978828E-2,2.293714696E0
1.092679749E0,7.434229851E-1,-2.163684607E0,1.099557430E-1,2.290480097E0
1.094441691E0,7.458664775E-1,-2.156965256E0,1.319468915E-1,2.286094027E0
1.096782402E0,7.452555895E-1,-2.149634838E0,1.441642046E-1,2.279719094E0
1.098645230E0,7.440338731E-1,-2.135584831E0,1.661553532E-1,2.267579453E0
1.100890402E0,7.452555895E-1,-2.118480682E0,1.912008226E-1,2.253868685E0
1.102695845E0,7.428121567E-1,-2.105652571E0,2.168571651E-1,2.243338958E0
1.104977248E0,7.458664775E-1,-2.092213392E0,2.315179259E-1,2.233220596E0
1.106755345E0,7.507534027E-1,-2.073887587E0,2.608394623E-1,2.220963219E0
1.109100402E0,7.544185519E-1,-2.051896334E0,2.981022298E-1,2.206420371E0
1.110956845E0,7.593054771E-1,-2.042733431E0,3.152064681E-1,2.201967256E0
1.113139518E0,7.678576112E-1,-2.021353006E0,3.518583775E-1,2.190725361E0
1.114974537E0,7.776314616E-1,-1.997529387E0,3.866777122E-1,2.178153805E0
1.117356210E0,7.843509912E-1,-1.975538254E0,4.245513380E-1,2.167533554E0
1.119190384E0,7.880161405E-1,-1.963320851E0,4.398229718E-1,2.160796716E0
1.121363979E0,7.935139537E-1,-1.946216702E0,4.605923891E-1,2.151643371E0
1.123329153E0,7.990117669E-1,-1.930334210E0,4.715879560E-1,2.141729481E0
1.125582133E0,7.990117669E-1,-1.928501606E0,4.642575979E-1,2.138474542E0
1.127312384E0,8.008443117E-1,-1.927890658E0,4.538728893E-1,2.136378853E0
1.129574325E0,8.032878041E-1,-1.929112434E0,4.166100919E-1,2.130800331E0
1.131577653E0,8.008443117E-1,-1.927279830E0,3.628539443E-1,2.118353639E0
1.133743748E0,7.977899909E-1,-1.915673375E0,2.962696552E-1,2.096198716E0
1.135522999E0,7.990117669E-1,-1.907121301E0,2.596177161E-1,2.083970446E0
1.137847325E0,7.984008789E-1,-1.882686734E0,1.808161139E-1,2.052960733E0
1.139818633E0,7.996225953E-1,-1.849089146E0,1.020144969E-1,2.017159865E0
1.141953479E0,8.020660877E-1,-1.831374049E0,6.291911751E-2,2.000299911E0
1.143886460E0,8.008443117E-1,-1.790446043E0,-4.276056774E-3,1.961394129E0
1.146040056E0,8.020660877E-1,-1.742187738E0,-6.658431143E-2,1.919104373E0
1.147882730E0,8.069530129E-1,-1.686598897E0,-1.105666086E-1,1.872969295E0
1.150163133E0,8.093964458E-1,-1.656666517E0,-1.319468915E-1,1.848533618E0
1.152048307E0,8.112290502E-1,-1.589471340E0,-1.643227488E-1,1.792069664E0
1.154202133E0,8.185594082E-1,-1.519832730E0,-1.875356287E-1,1.736404516E0
1.156054537E0,8.216137290E-1,-1.444085479E0,-2.021963894E-1,1.673713049E0
1.158417941E0,8.283332586E-1,-1.403768301E0,-2.101376504E-1,1.643429117E0
1.160328884E0,8.344419003E-1,-1.320690632E0,-2.186897546E-1,1.577448015E0
1.162431671E0,8.411614299E-1,-1.236391306E0,-2.223549485E-1,1.511839190E0
1.164326614E0,8.454375267E-1,-1.193019867E0,-2.199114859E-1,1.478655496E0
1.166649710E0,8.588765264E-1,-1.100168347E0,-2.174680233E-1,1.412562077E0
1.168432922E0,8.692612648E-1,-1.009760261E0,-2.150245607E-1,1.349617165E0
1.170641287E0,8.814785480E-1,-9.095783234E-1,-2.113593817E-1,1.284137822E0
1.172478307E0,8.888089061E-1,-8.607091308E-1,-2.101376504E-1,1.254973829E0
1.174812825E0,9.016370773E-1,-7.623597980E-1,-2.125810981E-1,1.199721886E0
1.176588576E0,9.187413454E-1,-6.627888083E-1,-2.131919712E-1,1.152746928E0
1.178915594E0,9.327912331E-1,-5.607742667E-1,-2.205223590E-1,1.110494202E0
1.180806307E0,9.395107627E-1,-5.094616413E-1,-2.254092693E-1,1.092264151E0
1.183022248E0,9.578366876E-1,-4.098905921E-1,-2.376265824E-1,1.068610224E0
1.184946807E0,9.767735004E-1,-3.048217595E-1,-2.516764700E-1,1.053728533E0
1.187108671E0,9.877691269E-1,-2.058615834E-1,-2.687807083E-1,1.044179060E0
1.188929307E0,9.993755221E-1,-1.527163088E-1,-2.785545588E-1,1.048649773E0
1.191232248E0,1.016479731E0,-4.703662544E-2,-2.919935882E-1,1.058632959E0
1.193067037E0,1.029918790E0,5.619960278E-2,-3.066543639E-1,1.076070633E0
1.195271517E0,1.037249207E0,1.075122803E-1,-3.145956099E-1,1.089226885E0
1.197164153E0,1.048855662E0,2.150245607E-1,-3.274237812E-1,1.119616048E0
1.199487594E0,1.063516378E0,3.200933933E-1,-3.371976018E-1,1.160701982E0
1.201303845E0,1.077566266E0,4.245513380E-1,-3.488040566E-1,1.209569000E0
1.203493133E0,1.083064079E0,4.728097022E-1,-3.549126983E-1,1.233912411E0
1.205361999E0,1.090394497E0,5.736024380E-1,-3.652974069E-1,1.285076695E0
1.207711633E0,1.102000952E0,6.713408828E-1,-3.756821156E-1,1.343964929E0
1.209437345E0,1.112385631E0,7.605272532E-1,-3.830125034E-1,1.400893312E0
1.211703825E0,1.117883444E0,8.045095205E-1,-3.866777122E-1,1.430530886E0
1.213739363E0,1.130711555E0,8.918632865E-1,-3.921754956E-1,1.492558328E0
1.215835248E0,1.156978726E0,9.816604257E-1,-3.921754956E-1,1.567181733E0
1.217570037E0,1.167974353E0,1.029918790E0,-3.909537494E-1,1.605534689E0
1.219902825E0,1.205847979E0,1.129489779E0,-3.787364662E-1,1.695068677E0
1.221801883E0,1.254106402E0,1.237002134E0,-3.640756905E-1,1.798751861E0
1.224009517E0,1.319468975E0,1.359786034E0,-3.426954150E-1,1.925475677E0
1.225811114E0,1.361618638E0,1.420872569E0,-3.292563558E-1,1.995318000E0
1.228095786E0,1.459967971E0,1.549154282E0,-2.987131178E-1,2.149561581E0
1.230083902E0,1.580308437E0,1.689653277E0,-2.632829249E-1,2.328437427E0
1.232218479E0,1.718974829E0,1.825265408E0,-2.284636050E-1,2.517670330E0
1.234036807E0,1.792889476E0,1.892460585E0,-2.107485086E-1,2.615391877E0
1.236259556E0,1.938886285E0,2.015244484E0,-1.759291887E-1,2.802042369E0
1.238234691E0,2.092824221E0,2.127643585E0,-1.527163088E-1,2.988327746E0
1.240476825E0,2.228436470E0,2.216830015E0,-1.343903542E-1,3.146160388E0
1.242380383E0,2.288301229E0,2.252260208E0,-1.319468915E-1,3.213472972E0
1.244490056E0,2.387872219E0,2.296853304E0,-1.362229437E-1,3.316025562E0
1.246363307E0,2.467284679E0,2.314568520E0,-1.545489132E-1,3.386533107E0
1.248707709E0,2.513099670E0,2.295631647E0,-1.893682331E-1,3.409025512E0
1.250451999E0,2.526538610E0,2.278527260E0,-2.095267773E-1,3.408663271E0
1.252699363E0,2.522262573E0,2.215608358E0,-2.663372457E-1,3.367738769E0
1.254547845E0,2.491108418E0,2.127032757E0,-3.316998184E-1,3.292402507E0
1.256871171E0,2.464230299E0,2.070833206E0,-3.671300113E-1,3.239686031E0
1.258644499E0,2.392759085E0,1.944994926E0,-4.306600094E-1,3.113481868E0
1.260973017E0,2.301129341E0,1.799609065E0,-4.923573732E-1,2.962466002E0
1.262895999E0,2.199725866E0,1.643227458E0,-5.497786999E-1,2.800222667E0
1.265079248E0,2.138028383E0,1.558317184E0,-5.754350424E-1,2.707516076E0
1.267049209E0,2.012800932E0,1.388496757E0,-6.285803318E-1,2.524758220E0
1.269165632E0,1.873523712E0,1.210124016E0,-6.695083380E-1,2.328676158E0
1.271151807E0,1.797776461E0,1.121548533E0,-6.896668673E-1,2.228342815E0
1.273287940E0,1.636507988E0,9.413433671E-1,-7.250970602E-1,2.022387568E0
1.275116191E0,1.471574426E0,7.629706860E-1,-7.544185519E-1,1.821209189E0
1.277327632E0,1.292590857E0,5.870414972E-1,-7.696902156E-1,1.614878283E0
1.279163922E0,1.197295904E0,5.002986193E-1,-7.727445364E-1,1.510281533E0
1.281542940E0,9.950994849E-1,3.225368559E-1,-7.648032904E-1,1.295830653E0
1.283465922E0,7.733554244E-1,1.356120855E-1,-7.440338731E-1,1.081691109E0
1.285549402E0,5.186246037E-1,-6.597344577E-2,-7.073819637E-1,8.796096963E-1
1.287443422E0,3.744603992E-1,-1.753183305E-1,-6.786713004E-1,7.947023604E-1
1.289782940E0,4.337143153E-2,-4.123340547E-1,-6.084218025E-1,7.362591551E-1
1.291514807E0,-3.371976018E-1,-6.609562039E-1,-5.064072609E-1,8.983393791E-1
1.293759402E0,-7.641924024E-1,-9.217956662E-1,-3.836233616E-1,1.257324207E0
1.295614076E0,-9.834930301E-1,-1.050688267E0,-3.170390725E-1,1.473675048E0
1.297930902E0,-1.422705173E0,-1.284649611E0,-1.722639948E-1,1.924601132E0
1.299801999E0,-1.852754235E0,-1.489289522E0,-2.382374369E-2,2.377235602E0
1.302033363E0,-2.056172371E0,-1.576643229E0,5.009094998E-2,2.591555091E0
1.304055555E0,-2.431854486E0,-1.727526903E0,1.979203373E-1,2.989554800E0
1.306083402E0,-2.769663095E0,-1.845423937E0,3.365867436E-1,3.345132853E0
1.308018940E0,-3.054937124E0,-1.916284323E0,4.685336351E-1,3.636524468E0
1.310135402E0,-3.174666643E0,-1.929112434E0,5.302310586E-1,3.752482919E0
1.311909153E0,-3.384193420E0,-1.929723263E0,6.432411075E-1,3.948462498E0
1.314258594E0,-3.550959587E0,-1.907121301E0,7.458664775E-1,4.099114837E0
1.316136845E0,-3.624263525E0,-1.889406204E0,7.953465581E-1,4.163858553E0
1.318298517E0,-3.738495350E0,-1.839315295E0,8.772025108E-1,4.257806064E0
1.320142883E0,-3.807523012E0,-1.771509171E0,9.376781583E-1,4.302873059E0
1.322515209E0,-3.854559660E0,-1.691485882E0,9.828822017E-1,4.322593213E0
1.324376807E0,-3.871052980E0,-1.648114443E0,9.999864101E-1,4.324500574E0
1.326528055E0,-3.883270264E0,-1.559538960E0,1.021977544E0,4.307712596E0
1.328398153E0,-3.877161741E0,-1.456302762E0,1.039692640E0,4.270147736E0
1.330744478E0,-3.853948832E0,-1.352455616E0,1.051909924E0,4.217650089E0
1.332463845E0,-3.839287996E0,-1.298699498E0,1.059240341E0,4.189121961E0
1.334735825E0,-3.798970938E0,-1.193630695E0,1.072068453E0,4.123865322E0
1.336600037E0,-3.752545118E0,-1.083064079E0,1.086118460E0,4.053921062E0
1.338909363E0,-3.703065157E0,-9.773843884E-1,1.098335743E0,3.984258175E0
1.340696422E0,-3.679241419E0,-9.260717034E-1,1.105666041E0,3.951825352E0
1.343011055E0,-3.636480808E0,-8.313875794E-1,1.114218235E0,3.893158133E0
1.344953306E0,-3.592498541E0,-7.483099103E-1,1.111163855E0,3.834149006E0
1.347117248E0,-3.550959587E0,-6.768386960E-1,1.106887817E0,3.780558854E0
1.349086978E0,-3.533244610E0,-6.444628239E-1,1.095281363E0,3.754835691E0
1.351203324E0,-3.499036074E0,-5.931501389E-1,1.072679400E0,3.707522303E0
1.353018999E0,-3.470936298E0,-5.546656251E-1,1.038470864E0,3.665170457E0
1.355325324E0,-3.454442978E0,-5.418374538E-1,1.015258074E0,3.641086798E0
1.357054845E0,-3.433673620E0,-5.320636034E-1,9.602801800E-1,3.604905579E0
1.359363478E0,-3.413515091E0,-5.418374538E-1,8.967501521E-1,3.570690961E0
1.361217576E0,-3.397021532E0,-5.674937963E-1,8.234463334E-1,3.541167655E0
1.363578978E0,-3.385415077E0,-5.858197808E-1,7.849618196E-1,3.524256676E0
1.365471268E0,-3.373808861E0,-6.352998614E-1,7.006624341E-1,3.503872142E0
1.367583632E0,-3.356093645E0,-6.927211881E-1,6.181956530E-1,3.482153510E0
1.369538691E0,-3.346930742E0,-7.263187766E-1,5.699372888E-1,3.471932153E0
1.371800132E0,-3.323107004E0,-7.984008789E-1,4.764748812E-1,3.450726364E0
1.373533422E0,-3.301726580E0,-8.820894361E-1,3.762930036E-1,3.438179257E0
1.375790594E0,-3.270572424E0,-9.663888216E-1,2.809980214E-1,3.421916309E0
1.377625345E0,-3.255300999E0,-1.012203693E0,2.333505303E-1,3.417015273E0
1.379960478E0,-3.227812052E0,-1.102611780E0,1.441642046E-1,3.413986921E0
1.381820383E0,-3.196657896E0,-1.184467673E0,5.864306539E-2,3.409549000E0
1.384060824E0,-3.161838531E0,-1.266934514E0,-1.832595654E-2,3.406270953E0
1.385955191E0,-3.149010420E0,-1.303586483E0,-5.131268129E-2,3.408553555E0
1.388167978E0,-3.117856264E0,-1.382998943E0,-1.203404516E-1,3.412945295E0
1.390137132E0,-3.084869385E0,-1.475239515E0,-1.814269722E-1,3.424276054E0
1.392253440E0,-3.048828363E0,-1.569312811E0,-2.327396572E-1,3.436897560E0
1.394038037E0,-3.019506931E0,-1.620014668E0,-2.583959997E-1,3.436369905E0
1.396376170E0,-2.984687567E0,-1.747074604E0,-3.048217595E-1,3.471821690E0
1.398252037E0,-2.922990084E0,-1.871691108E0,-3.414736688E-1,3.487650054E0
1.400415478E0,-2.903442621E0,-1.935221076E0,-3.604104817E-1,3.507841984E0
1.402238460E0,-2.835636377E0,-2.070222378E0,-3.909537494E-1,3.532633464E0
1.404631709E0,-2.780047655E0,-2.213775635E0,-4.092797041E-1,3.577286318E0
1.406620670E0,-2.716517687E0,-2.354274750E0,-4.141666293E-1,3.618509629E0
1.408645401E0,-2.687807083E0,-2.417804718E0,-4.092797041E-1,3.638350787E0
1.410680709E0,-2.635272741E0,-2.530203819E0,-3.860668242E-1,3.673641433E0
1.412863324E0,-2.577851295E0,-2.624887943E0,-3.481931984E-1,3.695482718E0
1.414588422E0,-2.530814648E0,-2.700635195E0,-2.944370508E-1,3.712835360E0
1.416854170E0,-2.499660492E0,-2.737287045E0,-2.669481039E-1,3.716490849E0
1.418756845E0,-2.444071770E0,-2.793486834E0,-1.985312104E-1,3.717051270E0
1.421029824E0,-2.384207010E0,-2.844188690E0,-1.203404516E-1,3.713264628E0
1.422798691E0,-2.356718063E0,-2.864347219E0,-7.391469181E-2,3.709995742E0
1.425132170E0,-2.290744781E0,-2.895501375E0,1.649336144E-2,3.692114827E0
1.426980614E0,-2.226603746E0,-2.911383867E0,1.203404516E-1,3.667206306E0
1.429238863E0,-2.152078152E0,-2.903442621E0,2.247984111E-1,3.621043186E0
1.431134383E0,-2.114815474E0,-2.890003443E0,2.791654170E-1,3.592004693E0
1.433325209E0,-2.042122602E0,-2.841134310E0,3.885102868E-1,3.520404683E0
1.435124768E0,-1.965153456E0,-2.783102036E0,4.941899776E-1,3.442631084E0
1.437447093E0,-1.890017033E0,-2.723848104E0,5.845980644E-1,3.366491910E0
1.439235922E0,-1.853976011E0,-2.701246023E0,6.230825782E-1,3.334994607E0
1.441485593E0,-1.781283021E0,-2.640159607E0,6.823364496E-1,3.257145220E0
1.443329537E0,-1.707368374E0,-2.571742773E0,7.128797174E-1,3.168148536E0
1.445700132E0,-1.632231951E0,-2.467284679E0,7.202101350E-1,3.044729457E0
1.447515729E0,-1.592525721E0,-2.405587435E0,7.177666426E-1,2.972907336E0
1.449705132E0,-1.507004619E0,-2.255925417E0,7.049384713E-1,2.803069863E0
1.451576537E0,-1.423926830E0,-2.076941729E0,6.872233748E-1,2.610274033E0
1.453922786E0,-1.352455616E0,-1.872301936E0,6.609562039E-1,2.402397518E0
1.455650653E0,-1.320690632E0,-1.764789701E0,6.469063163E-1,2.297214447E0
1.457913632E0,-1.267545342E0,-1.538158655E0,6.200281978E-1,2.087351961E0
1.459948324E0,-1.238223910E0,-1.318858027E0,5.913175344E-1,1.903218688E0
1.462043670E0,-1.229671717E0,-1.209513187E0,5.742133260E-1,1.817893183E0
1.463802499E0,-1.238223910E0,-9.914342761E-1,5.473352671E-1,1.678009616E0
1.466111363E0,-1.280984402E0,-7.861835957E-1,5.259549618E-1,1.592367516E0
1.468056922E0,-1.345125318E0,-5.894849896E-1,5.045747161E-1,1.552884515E0
1.470219862E0,-1.384220600E0,-4.960225821E-1,4.972442985E-1,1.552210348E0
1.472048806E0,-1.471574426E0,-3.207042515E-1,4.813618064E-1,1.581167827E0
1.474306901E0,-1.564425945E0,-1.710422635E-1,4.654793143E-1,1.641144414E0
1.476128576E0,-1.611462474E0,-9.957103431E-2,4.581489265E-1,1.678280708E0
1.478430170E0,-1.704313993E0,2.260201424E-2,4.440990388E-1,1.761369069E0
1.480207999E0,-1.781893969E0,1.343903542E-1,4.282165468E-1,1.837546270E0
1.482468978E0,-1.854586840E0,2.284636050E-1,4.105014503E-1,1.913164762E0
1.484344960E0,-1.888795376E0,2.681698501E-1,4.019493461E-1,1.949622096E0
1.486684170E0,-1.939497113E0,3.512475193E-1,3.860668242E-1,2.008499805E0
1.488627537E0,-1.974316478E0,4.190535545E-1,3.769038618E-1,2.053189703E0
1.490697324E0,-1.994475007E0,4.667010605E-1,3.665191531E-1,2.080883640E0
1.492550729E0,-1.999972820E0,4.831944108E-1,3.622430861E-1,2.089159681E0
1.494916247E0,-2.003027201E0,5.094616413E-1,3.512475193E-1,2.096436012E0
1.496788845E0,-1.996307611E0,5.222898126E-1,3.494149148E-1,2.092873983E0
1.498908670E0,-1.982257724E0,5.259549618E-1,3.494149148E-1,2.080400223E0
1.500748153E0,-1.976759911E0,5.210680366E-1,3.579670191E-1,2.075387200E0
1.503082362E0,-1.949881911E0,4.966334403E-1,3.732386529E-1,2.046458241E0
1.504851306E0,-1.914451718E0,4.599815309E-1,3.933972120E-1,2.007852026E0
1.507185247E0,-1.896736622E0,4.331034720E-1,4.092797041E-1,1.988139408E0
1.509071883E0,-1.853365183E0,3.769038618E-1,4.434881806E-1,1.942601552E0
1.511293978E0,-1.806939363E0,3.109304011E-1,4.825835526E-1,1.895941577E0
1.513234383E0,-1.760513663E0,2.553416789E-1,5.265658498E-1,1.855230262E0
1.515380593E0,-1.736689925E0,2.357939780E-1,5.491678715E-1,1.836648047E0
1.517194845E0,-1.692707539E0,2.064724565E-1,5.943718553E-1,1.805870313E0
1.519504401E0,-1.648725271E0,1.973094791E-1,6.462954283E-1,1.781831594E0
1.521474324E0,-1.609019041E0,2.131919712E-1,6.988298297E-1,1.767132203E0
1.523543555E0,-1.587638736E0,2.296853364E-1,7.263187766E-1,1.760934716E0
1.525436845E0,-1.550986886E0,2.846632004E-1,7.910705209E-1,1.764195575E0
1.527758516E0,-1.521054506E0,3.463605940E-1,8.509352803E-1,1.776981520E0
1.529554845E0,-1.507615447E0,3.744603992E-1,8.827002645E-1,1.786696584E0
1.531763593E0,-1.480737329E0,4.257730842E-1,9.395107627E-1,1.804590322E0
1.533725460E0,-1.448361516E0,4.721988440E-1,9.926560521E-1,1.818265346E0
1.535980708E0,-1.419650793E0,5.076290369E-1,1.042136073E0,1.832796554E0
1.537712999E0,-1.404379249E0,5.271766782E-1,1.063516378E0,1.838821202E0
1.539972247E0,-1.376890302E0,5.552765131E-1,1.105666041E0,1.851122985E0
1.541810229E0,-1.352455616E0,5.858197808E-1,1.145372391E0,1.866600901E0
1.544142247E0,-1.328631878E0,6.090326309E-1,1.186911225E0,1.882801548E0
1.545908960E0,-1.322523236E0,6.243042946E-1,1.208291411E0,1.897048154E0
1.548244324E0,-1.298088670E0,6.450737119E-1,1.250441194E0,1.914355627E0
1.550179152E0,-1.284038782E0,6.475171447E-1,1.289536476E0,1.931563711E0
1.552356478E0,-1.274264932E0,6.352998614E-1,1.323745012E0,1.944134226E0
1.554192191E0,-1.265101910E0,6.224716902E-1,1.339016676E0,1.944458666E0
1.556444131E0,-1.262047648E0,5.907067060E-1,1.370781660E0,1.954671594E0
1.558249422E0,-1.255328059E0,5.583308339E-1,1.397048831E0,1.959420142E0
1.560566708E0,-1.257160664E0,5.393940210E-1,1.408655286E0,1.963595824E0
1.562536324E0,-1.258993268E0,4.923573732E-1,1.421483397E0,1.961656158E0
1.564605901E0,-1.267545342E0,4.386012554E-1,1.432479024E0,1.962406281E0
1.566452460E0,-1.270599723E0,3.878994286E-1,1.436755061E0,1.956822610E0
1.568822554E0,-1.274875760E0,3.567453027E-1,1.433700681E0,1.951428466E0
1.570733383E0,-1.277319193E0,2.968805134E-1,1.430035591E0,1.940279400E0
1.572835401E0,-1.288314819E0,2.376265824E-1,1.416596532E0,1.929499210E0
1.574714960E0,-1.293812633E0,1.820378453E-1,1.392161846E0,1.909241606E0
1.577054093E0,-1.296866894E0,1.600466967E-1,1.376279354E0,1.897794390E0
1.578771845E0,-1.301753879E0,1.246165112E-1,1.340238333E0,1.872520020E0
1.581045862E0,-1.301142931E0,1.026253626E-1,1.296866894E0,1.839937127E0
1.582894229E0,-1.303586483E0,9.590584040E-2,1.277930140E0,1.828015616E0
1.585220208E0,-1.296256065E0,9.162978828E-2,1.232726097E0,1.791169851E0
1.586990768E0,-1.285871387E0,1.020144969E-1,1.189965487E0,1.754961549E0
1.589323631E0,-1.274875760E0,1.215621829E-1,1.142318010E0,1.716093239E0
1.591194345E0,-1.266323686E0,1.374446750E-1,1.122159481E0,1.697559606E0
1.593430708E0,-1.245554209E0,1.643227488E-1,1.080620646E0,1.657150637E0
1.595376383E0,-1.220508814E0,1.936442852E-1,1.040303469E0,1.615354816E0
1.597518477E0,-1.183246017E0,2.247984111E-1,1.005484223E0,1.568949962E0
1.599350768E0,-1.163698316E0,2.406809032E-1,9.920451641E-1,1.547990528E0
1.601642477E0,-1.117883444E0,2.724458873E-1,9.602801800E-1,1.498675475E0
1.603427229E0,-1.069625020E0,3.121521473E-1,9.334021211E-1,1.453539186E0
1.605680900E0,-1.021366715E0,3.561344445E-1,9.077457786E-1,1.412099185E0
1.607580768E0,-9.993755221E-1,3.830125034E-1,8.949176073E-1,1.395108432E0
1.609896631E0,-9.480628371E-1,4.324925840E-1,8.686503768E-1,1.356623181E0
1.611799152E0,-8.949176073E-1,4.831944108E-1,8.411614299E-1,1.319813212E0
1.613901439E0,-8.698720932E-1,5.106833577E-1,8.295549750E-1,1.306000156E0
1.615833652E0,-8.173376918E-1,5.540547967E-1,8.069530129E-1,1.275221857E0
1.618120323E0,-7.641924024E-1,6.004805565E-1,7.867944241E-1,1.250444878E0
1.619849652E0,-7.110471725E-1,6.389650702E-1,7.678576112E-1,1.226160574E0
1.622111400E0,-6.829473376E-1,6.566801667E-1,7.623597980E-1,1.216074985E0
1.624048345E0,-6.273586154E-1,6.914994717E-1,7.495316267E-1,1.197308653E0
1.626282362E0,-5.736024380E-1,7.244861722E-1,7.409795523E-1,1.184462185E0
1.628062576E0,-5.222898126E-1,7.538077235E-1,7.299839854E-1,1.172130262E0
1.630385708E0,-4.984660447E-1,7.721336484E-1,7.257078886E-1,1.171029764E0
1.632319268E0,-4.508185387E-1,8.051204085E-1,7.183775306E-1,1.169411178E0
1.634494131E0,-4.086688459E-1,8.454375267E-1,7.128797174E-1,1.178970877E0
1.636404922E0,-3.921754956E-1,8.637634516E-1,7.122688890E-1,1.186261308E0
1.638580593E0,-3.518583775E-1,9.065240026E-1,7.079927921E-1,1.202848236E0
1.640392960E0,-3.133738637E-1,9.486737251E-1,7.073819637E-1,1.224162676E0
1.642703900E0,-2.797762752E-1,9.932668805E-1,7.061602473E-1,1.250406396E0
1.644447268E0,-2.632829249E-1,1.015258074E0,7.073819637E-1,1.265091340E0
1.646743708E0,-2.315179259E-1,1.056185961E0,7.098253965E-1,1.293437833E0
1.648633345E0,-1.997529417E-1,1.096503139E0,7.122688890E-1,1.322704555E0
1.650960016E0,-1.716531366E-1,1.135598540E0,7.141014934E-1,1.352401489E0
1.652842537E0,-1.569923609E-1,1.153313637E0,7.171558142E-1,1.367147179E0
1.654972593E0,-1.301143020E-1,1.180191636E0,7.189884186E-1,1.388065696E0
1.656852729E0,-1.020144969E-1,1.203404546E0,7.183775306E-1,1.405224443E0
1.659190285E0,-7.574728876E-2,1.218065262E0,7.220427394E-1,1.418014933E0
1.660925460E0,-5.925392732E-2,1.223563075E0,7.244861722E-1,1.423199860E0
1.663181439E0,-2.932153270E-2,1.234558702E0,7.238753438E-1,1.431429514E0
1.665079499E0,3.054326167E-3,1.242499948E0,7.238753438E-1,1.437988512E0
1.667354593E0,3.848451003E-2,1.240667343E0,7.257078886E-1,1.437841595E0
1.669144768E0,5.803219974E-2,1.238223910E0,7.250970602E-1,1.436082148E0
1.671456746E0,9.346238524E-2,1.233336926E0,7.244861722E-1,1.433434827E0
1.673393075E0,1.337794960E-1,1.221119642E0,7.202101350E-1,1.423984822E0
1.675563477E0,1.527163088E-1,1.213178396E0,7.177666426E-1,1.417855086E0
1.677385152E0,1.966986060E-1,1.190576315E0,7.086036801E-1,1.399386108E0
1.679651439E0,2.419026345E-1,1.166141748E0,7.000515461E-1,1.381475888E0
1.681639477E0,2.871066630E-1,1.141096234E0,6.847799420E-1,1.361416329E0
1.683774823E0,3.103195429E-1,1.123381138E0,6.762278080E-1,1.347429942E0
1.685554460E0,3.597996235E-1,1.088561893E0,6.591235995E-1,1.322447232E0
1.687814939E0,4.117231667E-1,1.047023058E0,6.346889734E-1,1.291744302E0
1.689666652E0,4.618141353E-1,1.007927656E0,6.059783101E-1,1.263487304E0
1.692031054E0,4.874704778E-1,9.859365225E-1,5.937610269E-1,1.249900176E0
1.693851999E0,5.393940210E-1,9.480628371E-1,5.644394755E-1,1.228153482E0
1.696036477E0,5.937610269E-1,9.089674950E-1,5.351179838E-1,1.210423612E0
1.698070345E0,6.175847650E-1,8.875871897E-1,5.210680366E-1,1.200305736E0
1.700255785E0,6.713408828E-1,8.546004891E-1,4.880813360E-1,1.191328656E0
1.701968922E0,7.226535678E-1,8.252789378E-1,4.557054639E-1,1.187847201E0
1.704247977E0,7.733554244E-1,7.947356701E-1,4.239404798E-1,1.187185296E0
1.706283054E0,7.953465581E-1,7.757988572E-1,4.062253833E-1,1.182987353E0
1.708378977E0,8.442157507E-1,7.397578359E-1,3.714060783E-1,1.182321599E0
1.710099999E0,8.912523985E-1,7.098253965E-1,3.390302062E-1,1.188749096E0
1.712448015E0,9.364564419E-1,6.811147332E-1,3.011565804E-1,1.196479516E0
1.714333152E0,9.608910084E-1,6.652322412E-1,2.852740586E-1,1.203007379E0
1.716555977E0,1.004262447E0,6.346889734E-1,2.516764700E-1,1.214378113E0
1.718374499E0,1.043968678E0,6.090326309E-1,2.168571651E-1,1.227932561E0
1.720643977E0,1.062905550E0,5.974262357E-1,2.015855312E-1,1.235849118E0
1.722453768E0,1.096503139E0,5.827654600E-1,1.716531366E-1,1.253554751E0
1.724767323E0,1.131322384E0,5.668829679E-1,1.429424733E-1,1.273451682E0
1.726564114E0,1.158200502E0,5.503895879E-1,1.142318025E-1,1.287402815E0
1.728807631E0,1.171028733E0,5.418374538E-1,9.896016866E-2,1.294097846E0
1.730660114E0,1.194852471E0,5.259549618E-1,6.841690838E-2,1.307280354E0
1.733024015E0,1.215011001E0,5.119050741E-1,4.337143153E-2,1.319158678E0
1.734890499E0,1.232726097E0,4.954117239E-1,1.343903504E-2,1.328618461E0
1.737037515E0,1.240056396E0,4.880813360E-1,-6.108652451E-4,1.332652853E0
1.738913345E0,1.254717231E0,4.715879560E-1,-2.809980139E-2,1.340708816E0
1.741255708E0,1.265712738E0,4.544837475E-1,-5.314527452E-2,1.345885817E0
1.743097922E0,1.269988894E0,4.483750761E-1,-6.841690838E-2,1.348552140E0
1.745247708E0,1.273043156E0,4.392121136E-1,-9.224065393E-2,1.349834988E0
1.747080999E0,1.279762745E0,4.300491214E-1,-1.154535338E-1,1.355014557E0
1.749421285E0,1.280984402E0,4.251621962E-1,-1.404990107E-1,1.356990753E0
1.751202883E0,1.279151797E0,4.251621962E-1,-1.508837193E-1,1.356376832E0
1.753524631E0,1.273653984E0,4.276056588E-1,-1.759291887E-1,1.354987878E0
1.755399575E0,1.267545342E0,4.276056588E-1,-2.034181207E-1,1.353106325E0
1.757632515E0,1.262047648E0,4.373795092E-1,-2.229658216E-1,1.354170912E0
1.759456537E0,1.255328059E0,4.453207552E-1,-2.327396572E-1,1.352156374E0
1.761721015E0,1.238223910E0,4.630358517E-1,-2.571742535E-1,1.346751369E0
1.763615037E0,1.221730471E0,4.789183438E-1,-2.773328125E-1,1.341231379E0
1.765844208E0,1.199128509E0,5.015203953E-1,-3.048217595E-1,1.335046139E0
1.767622883E0,1.183856845E0,5.143485069E-1,-3.139847219E-1,1.328404239E0
1.769885977E0,1.153313637E0,5.479460955E-1,-3.390302062E-1,1.321105124E0
1.771830422E0,1.114829063E0,5.809328556E-1,-3.628539443E-1,1.308430284E0
1.774103169E0,1.079398870E0,6.200281978E-1,-3.842342496E-1,1.302755866E0
1.775908998E0,1.056796908E0,6.426302195E-1,-3.976732790E-1,1.299206428E0
1.778110207E0,1.016479731E0,6.896668673E-1,-4.196644127E-1,1.298071512E0
1.779995268E0,9.718865752E-1,7.391469479E-1,-4.416555762E-1,1.298445753E0
1.782329631E0,9.480628371E-1,7.641924024E-1,-4.569272101E-1,1.300613565E0
1.784146460E0,9.016370773E-1,8.155050874E-1,-4.819726646E-1,1.307782710E0
1.786322400E0,8.552113175E-1,8.649851680E-1,-5.057964325E-1,1.317351802E0
1.788196883E0,8.112290502E-1,9.028588533E-1,-5.308418870E-1,1.324779148E0
1.790493784E0,7.837401032E-1,9.236282706E-1,-5.430592299E-1,1.327498045E0
1.792281960E0,7.464773059E-1,9.657779336E-1,-5.607742667E-1,1.343288191E0
1.794597515E0,7.061602473E-1,1.003651619E0,-5.711590052E-1,1.353588370E0
1.796568075E0,6.743952036E-1,1.035416603E0,-5.784893632E-1,1.364384981E0
1.798648207E0,6.579018831E-1,1.051299095E0,-5.815436840E-1,1.369765575E0
1.800463614E0,6.279694438E-1,1.069625020E0,-5.784893632E-1,1.368609970E0
1.802701284E0,6.035348773E-1,1.087340117E0,-5.736024380E-1,1.369519125E0
1.804505614E0,5.876523852E-1,1.091005325E0,-5.711590052E-1,1.364496447E0
1.806824592E0,5.638286471E-1,1.095281363E0,-5.564982295E-1,1.351752302E0
1.808615498E0,5.357288122E-1,1.088561893E0,-5.369505286E-1,1.326758540E0
1.810864169E0,5.106833577E-1,1.072679400E0,-5.143485069E-1,1.294601473E0
1.812709537E0,4.966334403E-1,1.061683774E0,-5.021312237E-1,1.275128611E0
1.815080130E0,4.734205604E-1,1.039081812E0,-4.740314186E-1,1.236334835E0
1.816942345E0,4.489859641E-1,1.014647126E0,-4.428772926E-1,1.194670450E0
1.819109553E0,4.318817258E-1,9.871582389E-1,-4.105014503E-1,1.153045816E0
1.820988191E0,4.221078753E-1,9.743300676E-1,-3.940080702E-1,1.132579577E0
1.823328053E0,4.050036669E-1,9.419541955E-1,-3.610213697E-1,1.087033627E0
1.825048114E0,3.909537494E-1,9.071348906E-1,-3.219259977E-1,1.038929686E0
1.827320400E0,3.872885704E-1,8.906415105E-1,-3.011565804E-1,1.016823496E0
1.829265191E0,3.793473244E-1,8.625417352E-1,-2.583959997E-1,9.770625006E-1
1.831493669E0,3.750712574E-1,8.319984674E-1,-2.199114859E-1,9.387550051E-1
1.833284652E0,3.769038618E-1,8.075638413E-1,-1.795943826E-1,9.091039661E-1
1.835596669E0,3.805690408E-1,7.971791625E-1,-1.600466967E-1,8.977429237E-1
1.837488922E0,3.885102868E-1,7.880161405E-1,-1.185078546E-1,8.865403500E-1
1.839703938E0,4.025602043E-1,7.788531780E-1,-7.757988572E-2,8.801622746E-1
1.841598075E0,4.227187634E-1,7.782423496E-1,-4.764748737E-2,8.869174655E-1
1.843791476E0,4.343251884E-1,7.794640660E-1,-3.420845419E-2,8.929573438E-1
1.845589229E0,4.587597847E-1,7.941248417E-1,-1.221730467E-2,9.171935820E-1
1.847914823E0,4.941899776E-1,8.112290502E-1,0.000000000E0,9.499033139E-1
1.849697152E0,5.100724697E-1,8.228355050E-1,5.497787148E-3,9.681231421E-1
1.851953899E0,5.461135507E-1,8.552113175E-1,6.719517522E-3,1.014727333E0
1.853795922E0,5.821545720E-1,8.979719281E-1,7.330383174E-3,1.070192162E0
1.856169284E0,6.194173694E-1,9.395107627E-1,-4.886921961E-3,1.125336498E0
1.858047345E0,6.346889734E-1,9.590584636E-1,-1.466076635E-2,1.150147020E0
1.860173861E0,6.682865620E-1,9.914342761E-1,-4.459316283E-2,1.196468722E0
1.862045114E0,7.006624341E-1,1.027475357E0,-8.124507964E-2,1.246288176E0
1.864390746E0,7.318165898E-1,1.065959811E0,-1.276708394E-1,1.299278909E0
1.866114460E0,7.446447611E-1,1.089172721E0,-1.539380401E-1,1.328341054E0
1.868382707E0,7.745771408E-1,1.131322384E0,-2.125810981E-1,1.387462002E0
1.870233691E0,8.057312369E-1,1.180191636E0,-2.736676335E-1,1.454973917E0
1.872553207E0,8.350527883E-1,1.229060888E0,-3.371976018E-1,1.523681741E0
1.874355421E0,8.497135639E-1,1.247386813E0,-3.720169365E-1,1.554472130E0
1.876655322E0,8.839219809E-1,1.281595230E0,-4.392121136E-1,1.617625322E0
1.878585075E0,9.181304574E-1,1.304197311E0,-5.070181489E-1,1.673607352E0
1.880762938E0,9.364564419E-1,1.313971162E0,-5.363397002E-1,1.700332660E0
1.882695383E0,9.706648588E-1,1.310916781E0,-6.047565937E-1,1.739661925E0
1.884850322E0,1.006095052E0,1.296866894E0,-6.695083380E-1,1.772662519E0
1.886684575E0,1.037860036E0,1.276097536E0,-7.263187766E-1,1.798087134E0
1.888974476E0,1.051909924E0,1.265101910E0,-7.562511563E-1,1.810776944E0
1.890748152E0,1.078788042E0,1.241278172E0,-8.093964458E-1,1.832942374E0
1.893015015E0,1.099557400E0,1.207680583E0,-8.619308472E-1,1.846738653E0
1.894879229E0,1.106276989E0,1.170417786E0,-9.144652486E-1,1.852018699E0
1.897231707E0,1.109331250E0,1.150259256E0,-9.401215911E-1,1.854060621E0
1.899155345E0,1.103222609E0,1.106887817E0,-9.883799553E-1,1.849106730E0
1.901246438E0,1.088561893E0,1.051299095E0,-1.034805775E0,1.833308423E0
1.903126383E0,1.078788042E0,1.021977544E0,-1.062905550E0,1.827016680E0
1.905465630E0,1.048244715E0,9.566149712E-1,-1.116050839E0,1.805408170E0
1.907311652E0,1.009149432E0,8.900306821E-1,-1.169196129E0,1.782570273E0
1.909458438E0,9.547823668E-1,8.326093554E-1,-1.223563075E0,1.761236584E0
1.911315037E0,9.224064946E-1,8.081747293E-1,-1.252273798E0,1.752760622E0
1.913634015E0,8.472700715E-1,7.580837607E-1,-1.307251573E0,1.732473445E0
1.915412229E0,7.568620443E-1,7.220427394E-1,-1.357342601E0,1.713640805E0
1.917737592E0,6.591235995E-1,6.951646209E-1,-1.409876943E0,1.704538284E0
1.919710130E0,6.041457057E-1,6.847799420E-1,-1.434311628E0,1.700342745E0
1.921846476E0,5.021312237E-1,6.725626588E-1,-1.482569933E0,1.703669540E0
1.923701575E0,3.891211748E-1,6.517932415E-1,-1.535104394E0,1.712540574E0
1.925934168E0,2.730567753E-1,6.340781450E-1,-1.583362699E0,1.727325254E0
1.927901998E0,2.272418737E-1,6.316346526E-1,-1.609629869E0,1.743992408E0
1.930057284E0,8.674286306E-2,6.035348773E-1,-1.656055689E0,1.764737691E0
1.931826306E0,-3.237585723E-2,5.839871764E-1,-1.700037956E0,1.797837109E0
1.934097553E0,-1.075122803E-1,5.711590052E-1,-1.716531396E0,1.812253165E0
1.935983614E0,-2.272418737E-1,5.442809463E-1,-1.753183246E0,1.849738390E0
1.938314668E0,-3.567453027E-1,5.082398653E-1,-1.780061364E0,1.885256861E0
1.940159268E0,-4.685336351E-1,4.550946057E-1,-1.802052498E0,1.916775436E0
1.942320630E0,-5.149593949E-1,4.300491214E-1,-1.817934990E0,1.937785605E0
1.944208575E0,-5.729916096E-1,3.775147200E-1,-1.838704348E0,1.962567305E0
1.946539438E0,-6.206390858E-1,3.243694305E-1,-1.850921750E0,1.978969360E0
1.948408037E0,-6.664539576E-1,2.700024247E-1,-1.850921750E0,1.985692200E0
1.950530899E0,-6.609562039E-1,2.431243658E-1,-1.844202161E0,1.974095786E0
1.952566168E0,-6.737843752E-1,1.912008226E-1,-1.801441550E0,1.932804904E0
1.954662784E0,-6.414085031E-1,1.472185254E-1,-1.722029090E0,1.843491890E0
1.956407768E0,-5.919284225E-1,1.692096740E-1,-1.665829539E0,1.775950232E0
1.958728899E0,-3.610213697E-1,2.932153046E-1,-1.497841597E0,1.568388056E0
1.960655806E0,-8.552113548E-3,5.174028873E-1,-1.299921274E0,1.399133377E0
1.962835976E0,4.276056588E-1,7.617489696E-1,-1.099557400E0,1.404327087E0
1.964664614E0,6.267477274E-1,8.686503768E-1,-9.993755221E-1,1.464963353E0
1.966922591E0,1.020144939E0,1.034194827E0,-8.075638413E-1,1.662051141E0
1.968909822E0,1.347568750E0,1.155757070E0,-6.267477274E-1,1.882691864E0
1.971044784E0,1.623068929E0,1.240056396E0,-4.410447180E-1,2.089644241E0
1.972798537E0,1.745852828E0,1.267545342E0,-3.518583775E-1,2.185972921E0
1.975084091E0,1.961488247E0,1.303586483E0,-1.832595766E-1,2.362278124E0
1.976933614E0,2.139860868E0,1.317636371E0,-3.115412779E-2,2.513193331E0
1.979299284E0,2.275473118E0,1.306640744E0,1.020144969E-1,2.625927437E0
1.981172075E0,2.333505154E0,1.296256065E0,1.563815027E-1,2.673944888E0
1.983312514E0,2.409252644E0,1.271821499E0,2.547308207E-1,2.736222947E0
1.985280268E0,2.463008642E0,1.232115149E0,3.292563558E-1,2.773612998E0
1.987530745E0,2.479501963E0,1.188743711E0,3.842342496E-1,2.776450531E0
1.989257614E0,2.483167171E0,1.171028733E0,4.074471295E-1,2.775507280E0
1.991522091E0,2.456289053E0,1.125213742E0,4.404338300E-1,2.737415540E0
1.993419421E0,2.412306786E0,1.072679400E0,4.605923891E-1,2.679927326E0
1.995695437E0,2.393369913E0,1.049466491E0,4.660901725E-1,2.654588387E0
1.997482037E0,2.337170362E0,9.987646937E-1,4.734205604E-1,2.585347799E0
1.999797322E0,2.277305603E0,9.541715384E-1,4.642575979E-1,2.512389152E0
2.001675960E0,2.211943150E0,9.059131742E-1,4.520402849E-1,2.432634702E0
2.003903860E0,2.185675859E0,8.857545853E-1,4.440990388E-1,2.399784179E0
2.005742075E0,2.137417555E0,8.472700715E-1,4.263839424E-1,2.338423324E0
2.007990476E0,2.087326527E0,8.032878041E-1,4.092797041E-1,2.273700332E0
2.009808229E0,2.059837580E0,7.849618196E-1,3.970624208E-1,2.239811260E0
2.012112937E0,2.014022827E0,7.428121567E-1,3.756821156E-1,2.179264761E0
2.013896537E0,1.970040441E0,7.043276429E-1,3.573561609E-1,2.122460881E0
2.016151360E0,1.925447226E0,6.621779203E-1,3.353650272E-1,2.063563984E0
2.017996537E0,1.910786510E0,6.395758986E-1,3.249803185E-1,2.041022935E0
2.020366630E0,1.868025899E0,5.913175344E-1,3.048217595E-1,1.982950703E0
2.022185691E0,1.830152273E0,5.418374538E-1,2.822197378E-1,1.929428192E0
2.024371707E0,1.796554685E0,4.905247986E-1,2.559525371E-1,1.879823134E0
2.026240498E0,1.773952723E0,4.648684561E-1,2.425135076E-1,1.849817219E0
2.028589707E0,1.740355134E0,4.135557711E-1,2.162462920E-1,1.801839845E0
2.030314998E0,1.701259732E0,3.604104817E-1,1.918116808E-1,1.749563406E0
2.032582168E0,1.660331726E0,3.109304011E-1,1.698205322E-1,1.697709683E0
2.034405691E0,1.641394973E0,2.913827300E-1,1.569923609E-1,1.674433622E0
2.036753399E0,1.598023534E0,2.474004179E-1,1.313360333E-1,1.622385692E0
2.038530152E0,1.551597714E0,2.125810981E-1,1.093448773E-1,1.569905250E0
2.040857245E0,1.527163148E0,1.936442852E-1,9.346238524E-2,1.542225861E0
2.042880168E0,1.473407030E0,1.588249654E-1,6.963863969E-2,1.483577833E0
2.044970899E0,1.408044338E0,1.270599663E-1,3.970624134E-2,1.414323046E0
2.046889729E0,1.338405728E0,1.007927656E-1,1.038470957E-2,1.342235791E0
2.049059976E0,1.296866894E0,8.552113175E-2,-5.497787148E-3,1.299695283E0
2.051048053E0,1.207069755E0,6.047565863E-2,-3.726277873E-2,1.209158059E0
2.053182591E0,1.102611780E0,4.337143153E-2,-7.208210230E-2,1.105816281E0
2.054971306E0,9.865473509E-1,3.298672289E-2,-1.136209369E-1,9.936163831E-1
2.057222206E0,9.181304574E-1,2.932153270E-2,-1.331686229E-1,9.282010403E-1
2.059074421E0,7.861835957E-1,3.359758854E-2,-1.734857261E-1,8.057982013E-1
2.061437283E0,6.426302195E-1,4.398229718E-2,-2.199114859E-1,6.806387464E-1
2.063328883E0,4.899139404E-1,6.658431143E-2,-2.663372457E-1,5.615911930E-1
2.065450360E0,4.092797041E-1,8.124507964E-2,-2.877175212E-1,5.068451550E-1
2.067343037E0,2.467895597E-1,1.203404516E-1,-3.255911767E-1,4.259067098E-1
2.069667937E0,8.002334833E-2,1.618792862E-1,-3.518583775E-1,3.954907804E-1
2.071490306E0,-7.941247895E-3,1.948660165E-1,-3.573561609E-1,4.071108615E-1
2.073658745E0,-1.832595766E-1,2.791654170E-1,-3.616322279E-1,4.922349751E-1
2.075506537E0,-3.640756905E-1,3.744603992E-1,-3.561344445E-1,6.321419473E-1
2.077831822E0,-5.424483418E-1,4.721988440E-1,-3.329215646E-1,7.925015583E-1
2.079801322E0,-6.304129362E-1,5.277875662E-1,-3.176499307E-1,8.814089083E-1
2.081934091E0,-7.971791625E-1,6.401867867E-1,-2.748893499E-1,1.058724654E0
2.083843267E0,-9.529497623E-1,7.776314616E-1,-2.156354338E-1,1.248728385E0
2.086040706E0,-1.095281363E0,9.340129495E-1,-1.514945775E-1,1.447401831E0
2.088010783E0,-1.161865711E0,1.016479731E0,-1.172861308E-1,1.548198634E0
2.090127399E0,-1.286482215E0,1.200350165E0,-4.092797264E-2,1.759986394E0
2.091972767E0,-1.394605398E0,1.395827055E0,4.031710699E-2,1.973545757E0
2.094249591E0,-1.489900351E0,1.596190929E0,1.258382350E-1,2.187113120E0
2.096036614E0,-1.533271790E0,1.695761919E0,1.661553532E-1,2.292190757E0
2.098287822E0,-1.609629869E0,1.894904017E0,2.431243658E-1,2.498135106E0
2.100129383E0,-1.676825047E0,2.080606937E0,3.054326177E-1,2.689601559E0
2.102502629E0,-1.708590150E0,2.161241293E0,3.310889602E-1,2.774862902E0
2.104329998E0,-1.764789701E0,2.310903311E0,3.781255782E-1,2.932189583E0
2.106507822E0,-1.814269781E0,2.415361166E0,4.074471295E-1,3.048205630E0
2.108480767E0,-1.855197787E0,2.499049664E0,4.214970171E-1,3.140806869E0
2.110725783E0,-1.871691108E0,2.523484230E0,4.221078753E-1,3.170074971E0
2.112442229E0,-1.901623487E0,2.553416729E0,4.208861589E-1,3.211425546E0
2.114717514E0,-1.921171188E0,2.556471109E0,4.080579877E-1,3.223810570E0
2.116576691E0,-1.924225569E0,2.544864655E0,3.946189582E-1,3.214763486E0
2.118888245E0,-1.928501606E0,2.502714872E0,3.683517575E-1,3.180940615E0
2.120666537E0,-1.918116927E0,2.445904493E0,3.341432810E-1,3.126223452E0
2.122991168E0,-1.895514846E0,2.368935347E0,2.901609838E-1,3.047790118E0
2.124928729E0,-1.874134541E0,2.325563908E0,2.681698501E-1,2.998756881E0
2.127098860E0,-1.829541445E0,2.232712507E0,2.247984111E-1,2.895299875E0
2.128945844E0,-1.768454909E0,2.134363174E0,1.820378453E-1,2.777782696E0
2.131185975E0,-1.695151091E0,2.025629044E0,1.441642046E-1,2.645277596E0
2.132991691E0,-1.653001308E0,1.975538254E0,1.276708394E-1,2.579043342E0
2.135309168E0,-1.564425945E0,1.867415071E0,9.407325089E-2,2.437933010E0
2.137080460E0,-1.470352650E0,1.764789701E0,6.902777404E-2,2.298082774E0
2.139347629E0,-1.364062071E0,1.665218711E0,4.886921868E-2,2.153138846E0
2.141185421E0,-1.313971162E0,1.609629869E0,4.214970022E-2,2.078269744E0
2.143562629E0,-1.199128509E0,1.497230768E0,3.359758854E-2,1.918524942E0
2.145443767E0,-1.084896684E0,1.385442376E0,3.359758854E-2,1.759994372E0
2.147578321E0,-1.031140566E0,1.329242826E0,3.604105115E-2,1.682687230E0
2.149471075E0,-9.126327038E-1,1.218676209E0,4.825835302E-2,1.523285602E0
2.151795514E0,-7.874053121E-1,1.105666041E0,6.658431143E-2,1.359020968E0
2.153503344E0,-6.627888083E-1,9.841039181E-1,9.468411654E-2,1.190258211E0
2.155786744E0,-5.998696685E-1,9.266825914E-1,1.105666086E-1,1.109418415E0
2.157628921E0,-4.703662395E-1,8.014551997E-1,1.435533315E-1,9.403097338E-1
2.159959398E0,-3.243694305E-1,6.676757336E-1,1.771509200E-1,7.631440632E-1
2.161729614E0,-1.655444801E-1,5.277875662E-1,2.125810981E-1,5.925836761E-1
2.164062168E0,-8.552113175E-2,4.557054639E-1,2.296853364E-1,5.174327855E-1
2.165951229E0,8.429940045E-2,3.133738637E-1,2.638937831E-1,4.182696452E-1
2.168169783E0,2.602286041E-1,1.649336219E-1,2.968805134E-1,4.278551919E-1
2.170007498E0,4.422664344E-1,1.221730467E-2,3.200933933E-1,5.460848304E-1
2.172255975E0,5.308418870E-1,-6.047565863E-2,3.335324228E-1,6.298367180E-1
2.174201960E0,7.092145681E-1,-1.960877478E-1,3.536909819E-1,8.164147348E-1
2.176378744E0,8.741481900E-1,-3.316998184E-1,3.695734739E-1,1.005357837E0
2.178162344E0,9.541715384E-1,-3.933972120E-1,3.787364662E-1,1.099384374E0
2.180417360E0,1.106276989E0,-5.076290369E-1,3.891211748E-1,1.277869831E0
2.182252767E0,1.249219418E0,-6.084218025E-1,3.970624208E-1,1.445124496E0
2.184632360E0,1.377501130E0,-6.902777553E-1,4.013384581E-1,1.592188840E0
2.186412344E0,1.433089852E0,-7.263187766E-1,4.074471295E-1,1.657497708E0
2.188638437E0,1.540602207E0,-7.874053121E-1,4.123340547E-1,1.778617907E0
2.190510767E0,1.632231951E0,-8.417723179E-1,4.153883755E-1,1.882899169E0
2.192857244E0,1.712866187E0,-8.961393237E-1,4.196644127E-1,1.978154312E0
2.194589306E0,1.752572417E0,-9.175195694E-1,4.208861589E-1,2.022497811E0
2.196848629E0,1.817934990E0,-9.584475756E-1,4.214970171E-1,2.097896355E0
2.198884321E0,1.874134541E0,-9.987646937E-1,4.245513380E-1,2.165676575E0
2.200980052E0,1.928501606E0,-1.028697014E0,4.306600094E-1,2.227735180E0
2.202724575E0,1.954157948E0,-1.048244715E0,4.276056588E-1,2.258405825E0
2.205048398E0,2.000583649E0,-1.078788042E0,4.331034720E-1,2.313805781E0
2.206937921E0,2.042122602E0,-1.106887817E0,4.367686510E-1,2.363521148E0
2.209156090E0,2.064113617E0,-1.119105101E0,4.386012554E-1,2.388583746E0
2.210968806E0,2.098322153E0,-1.144761443E0,4.434881806E-1,2.431073094E0
2.213243244E0,2.127032757E0,-1.168585181E0,4.544837475E-1,2.469091969E0
2.215231629E0,2.158797741E0,-1.190576315E0,4.612032473E-1,2.508104480E0
2.217366937E0,2.168571711E0,-1.200961113E0,4.660901725E-1,2.522350275E0
2.219136729E0,2.192395449E0,-1.222341299E0,4.783074856E-1,2.555287480E0
2.221407283E0,2.211332083E0,-1.241278172E0,4.899139404E-1,2.582784689E0
2.223359806E0,2.222938538E0,-1.249830246E0,4.948008358E-1,2.597760430E0
2.225624090E0,2.235155821E0,-1.269377947E0,5.027421117E-1,2.619158557E0
2.227501344E0,2.246762276E0,-1.287093043E0,5.155702829E-1,2.640144303E0
2.229637437E0,2.254092693E0,-1.304197311E0,5.229006410E-1,2.656179508E0
2.231673513E0,2.257147074E0,-1.312138557E0,5.222898126E-1,2.662556507E0
2.233856475E0,2.256536245E0,-1.330464482E0,5.314527750E-1,2.672926040E0
2.235587575E0,2.252260208E0,-1.350623012E0,5.320636034E-1,2.679542917E0
2.237849360E0,2.245540619E0,-1.368338108E0,5.314527750E-1,2.682767955E0
2.239702614E0,2.236988544E0,-1.382387996E0,5.290092826E-1,2.682343218E0
2.242023321E0,2.219273329E0,-1.403768301E0,5.235115290E-1,2.677648945E0
2.243825652E0,2.196060658E0,-1.423926830E0,5.161811113E-1,2.667713060E0
2.246127013E0,2.166738987E0,-1.442863703E0,5.064072609E-1,2.651992047E0
2.248023998E0,2.153300047E0,-1.457524419E0,5.002986193E-1,2.647900533E0
2.250236744E0,2.115426302E0,-1.479515672E0,4.899139404E-1,2.627548426E0
2.252128960E0,2.065946341E0,-1.507615447E0,4.764748812E-1,2.601550870E0
2.254323859E0,2.043955088E0,-1.524108768E0,4.667010605E-1,2.592001122E0
2.256312090E0,1.993864179E0,-1.552208543E0,4.538728893E-1,2.567264366E0
2.258447167E0,1.940108061E0,-1.583973527E0,4.398229718E-1,2.542918730E0
2.260227383E0,1.885130167E0,-1.615127683E0,4.227187634E-1,2.518143032E0
2.262487206E0,1.852754235E0,-1.631010175E0,4.141666293E-1,2.502883626E0
2.264339921E0,1.785559058E0,-1.662164330E0,3.976732790E-1,2.471670579E0
2.266702744E0,1.723250866E0,-1.687820673E0,3.811798990E-1,2.442054522E0
2.268503460E0,1.656666517E0,-1.712255239E0,3.671300113E-1,2.410631950E0
2.270708398E0,1.623679876E0,-1.723861694E0,3.585779071E-1,2.395122877E0
2.272735614E0,1.552819490E0,-1.744631171E0,3.445279896E-1,2.360865483E0
2.274926282E0,1.485013366E0,-1.759902716E0,3.286454976E-1,2.326054627E0
2.276780498E0,1.453248382E0,-1.766622305E0,3.213151097E-1,2.310006196E0
2.278918975E0,1.384831548E0,-1.781283021E0,3.048217595E-1,2.276761718E0
2.280857614E0,1.326188445E0,-1.791056871E0,2.919935882E-1,2.247647829E0
2.283089167E0,1.265712738E0,-1.797776461E0,2.816088796E-1,2.216603821E0
2.284853998E0,1.238223910E0,-1.804495931E0,2.761110961E-1,2.205819882E0
2.287191513E0,1.183246017E0,-1.813658953E0,2.675589919E-1,2.181975652E0
2.289214206E0,1.138652802E0,-1.822821856E0,2.596177161E-1,2.164858212E0
2.291239513E0,1.094059706E0,-1.835039139E0,2.553416789E-1,2.151635344E0
2.293064960E0,1.075733662E0,-1.841147900E0,2.528982162E-1,2.147320658E0
2.295291552E0,1.042136073E0,-1.853976011E0,2.498438805E-1,2.141423968E0
2.297086767E0,1.015258074E0,-1.865582466E0,2.480112910E-1,2.138377070E0
2.299413398E0,9.920451641E-1,-1.877799749E0,2.480112910E-1,2.138175649E0
2.301293267E0,9.853256345E-1,-1.885740995E0,2.461786866E-1,2.141842584E0
2.303452744E0,9.706648588E-1,-1.902234316E0,2.419026345E-1,2.149233013E0
2.305292229E0,9.584475756E-1,-1.912619114E0,2.425135076E-1,2.153031916E0
2.307668052E0,9.553932548E-1,-1.920560360E0,2.406809032E-1,2.158530904E0
2.309656629E0,9.511171579E-1,-1.935221076E0,2.351831198E-1,2.169104783E0
2.311681090E0,9.468411207E-1,-1.946827531E0,2.333505303E-1,2.177406258E0
2.313545460E0,9.492846131E-1,-1.959044814E0,2.278527319E-1,2.188815828E0
2.315899128E0,9.486737251E-1,-1.965764403E0,2.254092693E-1,2.194315580E0
2.317714883E0,9.566149712E-1,-1.979203343E0,2.193006277E-1,2.209174245E0
2.319891821E0,9.608910084E-1,-1.990809798E0,2.083050460E-1,2.220366225E0
2.321708267E0,9.688322544E-1,-2.001805305E0,1.954768747E-1,2.232503444E0
2.324066013E0,9.773843884E-1,-2.008524895E0,1.857030392E-1,2.241414311E0
2.325891690E0,9.889908433E-1,-2.016466141E0,1.685988009E-1,2.252257565E0
2.328169282E0,1.007927656E0,-2.020131350E0,1.533271819E-1,2.262820818E0
2.330066998E0,1.015258074E0,-2.023185730E0,1.441642046E-1,2.268217973E0
2.332277013E0,1.034805775E0,-2.027461767E0,1.221730486E-1,2.279550496E0
2.334148844E0,1.053742528E0,-2.026240110E0,1.020144969E-1,2.286138504E0
2.336364205E0,1.075733662E0,-2.021964073E0,8.002334833E-2,2.291712321E0
2.338254383E0,1.084896684E0,-2.014633656E0,7.086037099E-2,2.289272979E0
2.340487090E0,1.108109593E0,-1.999972820E0,5.070181563E-2,2.286999962E0
2.342374421E0,1.131933331E0,-1.983479500E0,2.687807009E-2,2.283897201E0
2.344525744E0,1.154535294E0,-1.966375232E0,6.108652335E-3,2.280267662E0
2.346468537E0,1.168585181E0,-1.951103568E0,-6.108652335E-3,2.274298524E0
2.348741321E0,1.193630695E0,-1.925447226E0,-2.748893574E-2,2.265580918E0
2.350553998E0,1.218065262E0,-1.892460585E0,-4.703662544E-2,2.251066967E0
2.352745282E0,1.232115149E0,-1.874134541E0,-5.742133409E-2,2.243609865E0
2.354634460E0,1.258382440E0,-1.836260915E0,-7.635815442E-2,2.227377624E0
2.356963436E0,1.286482215E0,-1.793500304E0,-9.101892263E-2,2.209064117E0
2.358841806E0,1.311527729E0,-1.742187738E0,-1.069014147E-1,2.183289035E0
2.360954205E0,1.322523236E0,-1.715309620E0,-1.136209369E-1,2.168931654E0
2.362772229E0,1.351844788E0,-1.663386106E0,-1.264491081E-1,2.147167214E0
2.365124551E0,1.381166339E0,-1.610240817E0,-1.447750628E-1,2.126371502E0
2.366948152E0,1.406822681E0,-1.549154282E0,-1.557706445E-1,2.098402616E0
2.369226744E0,1.426981211E0,-1.520443559E0,-1.643227488E-1,2.091656271E0
2.371136575E0,1.450804949E0,-1.457524419E0,-1.789835095E-1,2.064278936E0
2.373334244E0,1.481348276E0,-1.390329242E0,-1.924225539E-1,2.040694626E0
2.375152037E0,1.519832730E0,-1.315192819E0,-2.046398520E-1,2.020272543E0
2.377420705E0,1.537547827E0,-1.271821499E0,-2.113593817E-1,2.006553272E0
2.379392921E0,1.592525721E0,-1.179580808E0,-2.211332172E-1,1.994103546E0
2.381543744E0,1.656666517E0,-1.065959811E0,-2.254092693E-1,1.982832219E0
2.383486383E0,1.693929315E0,-1.004262447E0,-2.272418737E-1,1.982316437E0
2.385583282E0,1.782504797E0,-8.723155856E-1,-2.235766798E-1,1.997058929E0
2.387483998E0,1.890627980E0,-7.202101350E-1,-2.174680233E-1,2.034814276E0
2.389798936E0,2.006692410E0,-5.607742667E-1,-2.113593817E-1,2.094267173E0
2.391665690E0,2.065335512E0,-4.795292318E-1,-2.064724565E-1,2.130302781E0
2.393810936E0,2.183232307E0,-3.127630055E-1,-2.015855312E-1,2.214714594E0
2.395679690E0,2.298074961E0,-1.527163088E-1,-2.028072625E-1,2.312055705E0
2.398027820E0,2.397035122E0,-6.719517522E-3,-2.174680233E-1,2.406889044E0
2.399949551E0,2.442850113E0,6.230825558E-2,-2.278527319E-1,2.454244458E0
2.402019090E0,2.511266947E0,1.808161139E-1,-2.608394623E-1,2.531243443E0
2.403879536E0,2.552195072E0,2.828305960E-1,-3.017674387E-1,2.585489590E0
2.406191628E0,2.564412355E0,3.732386529E-1,-3.439171314E-1,2.614153173E0
2.408044690E0,2.560136318E0,4.141666293E-1,-3.683517575E-1,2.619449366E0
2.410293051E0,2.534479856E0,4.838052690E-1,-4.080579877E-1,2.612310663E0
2.412197652E0,2.482556343E0,5.467243791E-1,-4.447098970E-1,2.580651165E0
2.414399359E0,2.448347807E0,5.748242140E-1,-4.581489265E-1,2.556311855E0
2.416225344E0,2.372600555E0,6.316346526E-1,-4.807509482E-1,2.501862747E0
2.418485743E0,2.278527260E0,6.811147332E-1,-4.996877611E-1,2.430080577E0
2.420404844E0,2.172847748E0,7.263187766E-1,-5.100724697E-1,2.347121689E0
2.422608667E0,2.117259026E0,7.495316267E-1,-5.131267905E-1,2.303884230E0
2.424428767E0,2.003027201E0,7.910705209E-1,-5.222898126E-1,2.216009292E0
2.426646167E0,1.890627980E0,8.313875794E-1,-5.271766782E-1,2.131570950E0
2.428507190E0,1.777006984E0,8.686503768E-1,-5.320636034E-1,2.048267311E0
2.430860051E0,1.726305127E0,8.845328689E-1,-5.338962078E-1,2.011858084E0
2.432675575E0,1.624290705E0,9.187413454E-1,-5.320636034E-1,1.940489019E0
2.434863820E0,1.534493446E0,9.492846131E-1,-5.314527750E-1,1.881024579E0
2.436769536E0,1.489289522E0,9.651671052E-1,-5.302310586E-1,1.852208357E0
2.439080743E0,1.406822681E0,9.957103729E-1,-5.241223574E-1,1.801469802E0
2.440823575E0,1.326188445E0,1.018923283E0,-5.210680366E-1,1.751711262E0
2.443072513E0,1.252273798E0,1.041525245E0,-5.161811113E-1,1.708627356E0
2.445107205E0,1.213789225E0,1.051299095E0,-5.106833577E-1,1.685025686E0
2.447203128E0,1.139874578E0,1.061072946E0,-4.984660447E-1,1.635132486E0
2.448957460E0,1.065348983E0,1.068403363E0,-4.813618064E-1,1.583718217E0
2.451271590E0,9.896016717E-1,1.066570759E0,-4.636467099E-1,1.527040577E0
2.453211806E0,9.437867999E-1,1.062905550E0,-4.526511431E-1,1.491775717E0
2.455378397E0,8.564330935E-1,1.045801282E0,-4.239404798E-1,1.416652214E0
2.457191575E0,7.648032904E-1,1.016479731E0,-3.970624208E-1,1.332596594E0
2.459464666E0,7.122688890E-1,1.004262447E0,-3.811798990E-1,1.288863123E0
2.461287460E0,6.102544069E-1,9.694431424E-1,-3.481931984E-1,1.197275637E0
2.463587897E0,5.088507533E-1,9.364564419E-1,-3.060434759E-1,1.108847314E0
2.465377883E0,3.995058835E-1,8.985827565E-1,-2.602286041E-1,1.017238835E0
2.467625897E0,3.439171314E-1,8.772025108E-1,-2.400700450E-1,9.723152086E-1
2.469485883E0,2.309070677E-1,8.429940343E-1,-1.863138974E-1,8.936833243E-1
2.471841320E0,1.142318025E-1,8.057312369E-1,-1.319468915E-1,8.244159830E-1
2.473779883E0,-8.552113548E-3,7.696902156E-1,-8.002334833E-2,7.738862338E-1
2.475853974E0,-6.658431143E-2,7.519751191E-1,-5.009094998E-2,7.565772621E-1
2.477745383E0,-1.844813079E-1,7.098253965E-1,3.665191587E-3,7.334158985E-1
2.480071320E0,-2.956587672E-1,6.688974500E-1,5.619960278E-2,7.334823110E-1
2.481863767E0,-3.500257730E-1,6.462954283E-1,7.757988572E-2,7.390767626E-1
2.484062859E0,-4.538728893E-1,5.876523852E-1,1.227839142E-1,7.526033584E-1
2.485908767E0,-5.546656251E-1,5.216789246E-1,1.612684280E-1,7.783382053E-1
2.488235974E0,-6.389650702E-1,4.398229718E-1,1.991420686E-1,8.008608937E-1
2.490013921E0,-6.768386960E-1,3.915646076E-1,2.144137025E-1,8.108062026E-1
2.492338282E0,-7.379252315E-1,2.852740586E-1,2.437352389E-1,8.278416530E-1
2.494271267E0,-7.843509912E-1,1.722639948E-1,2.687807083E-1,8.468319966E-1
2.496446205E0,-8.179485798E-1,5.803219974E-2,2.987131178E-1,8.727182490E-1
2.498415551E0,-8.252789378E-1,6.108652451E-4,3.103195429E-1,8.816937774E-1
2.500532743E0,-8.332201838E-1,-1.166752651E-1,3.353650272E-1,9.057255068E-1
2.502342921E0,-8.252789378E-1,-2.266310006E-1,3.622430861E-1,9.293368545E-1
2.504656666E0,-8.063421249E-1,-3.402519524E-1,3.854559660E-1,9.563133981E-1
2.506627089E0,-7.910705209E-1,-3.933972120E-1,3.933972120E-1,9.671170053E-1
2.508697012E0,-7.525860071E-1,-5.051855445E-1,4.117231667E-1,9.955471352E-1
2.510552998E0,-7.018841505E-1,-6.059783101E-1,4.312708676E-1,1.022665945E0
2.512913666E0,-6.481280327E-1,-6.969972253E-1,4.459316432E-1,1.051061420E0
2.514734075E0,-6.218608022E-1,-7.342600226E-1,4.557054639E-1,1.064667135E0
2.516920089E0,-5.729916096E-1,-7.904596329E-1,4.721988440E-1,1.084489541E0
2.518834383E0,-5.271766782E-1,-8.258898258E-1,4.893030524E-1,1.095183424E0
2.521138512E0,-5.094616413E-1,-8.350527883E-1,4.954117239E-1,1.096493091E0
2.522858959E0,-4.783074856E-1,-8.362745047E-1,5.094616413E-1,1.089809278E0
2.525131589E0,-4.508185387E-1,-8.210029006E-1,5.198463202E-1,1.071225146E0
2.526997190E0,-4.331034720E-1,-7.874053121E-1,5.277875662E-1,1.042183025E0
2.529302974E0,-4.288274050E-1,-7.672467232E-1,5.308418870E-1,1.026817212E0
2.531073959E0,-4.221078753E-1,-7.189884186E-1,5.320636034E-1,9.890455412E-1
2.533406320E0,-4.208861589E-1,-6.542366743E-1,5.235115290E-1,9.376753733E-1
2.535345767E0,-4.349360466E-1,-5.821545720E-1,5.161811113E-1,8.913564102E-1
2.537520397E0,-4.434881806E-1,-5.400048494E-1,5.106833577E-1,8.654966757E-1
2.539448998E0,-4.679227769E-1,-4.465425014E-1,4.966334403E-1,8.154733011E-1
2.541608320E0,-4.978551865E-1,-3.469714522E-1,4.856378734E-1,7.772342758E-1
2.543393306E0,-5.125159621E-1,-2.913827300E-1,4.801400900E-1,7.603361183E-1
2.545731474E0,-5.430592299E-1,-1.820378453E-1,4.715879560E-1,7.419206861E-1
2.547495152E0,-5.760459304E-1,-6.230825558E-2,4.654793143E-1,7.432242089E-1
2.549771320E0,-6.108652353E-1,7.635815442E-2,4.697553813E-1,7.743752461E-1
2.551807089E0,-6.316346526E-1,1.551597714E-1,4.746423066E-1,8.051845802E-1
2.553988166E0,-6.762278080E-1,3.292563558E-1,4.911356568E-1,8.982805962E-1
2.555866306E0,-7.367035151E-1,5.363397002E-1,5.106833577E-1,1.044600323E0
2.558001589E0,-8.387179971E-1,7.855727077E-1,5.271766782E-1,1.264313097E0
2.559954575E0,-9.065240026E-1,9.248499870E-1,5.332853794E-1,1.400545094E0
2.562220281E0,-1.084285855E0,1.224173903E0,5.369505286E-1,1.721218589E0
2.563969652E0,-1.326799273E0,1.556484699E0,5.259549618E-1,2.111792971E0
2.566212974E0,-1.467298269E0,1.726916075E0,5.143485069E-1,2.323737878E0
2.568196806E0,-1.794111252E0,2.069611549E0,4.721988440E-1,2.779406213E0
2.570386858E0,-2.150856495E0,2.397035122E0,4.080579877E-1,3.246301335E0
2.572168036E0,-2.514932156E0,2.685974598E0,3.243694305E-1,3.693854195E0
2.574489551E0,-2.690861464E0,2.812423706E0,2.742784917E-1,3.902011175E0
2.576419613E0,-3.025615454E0,3.014009237E0,1.710422635E-1,4.274091250E0
2.578596974E0,-3.317609072E0,3.144123316E0,6.597344577E-2,4.571257362E0
2.580473844E0,-3.571729183E0,3.195436001E0,-3.298672289E-2,4.792613975E0
2.582683358E0,-3.678019524E0,3.199101210E0,-8.124507964E-2,4.875313008E0
2.584484229E0,-3.855781317E0,3.151453733E0,-1.661553532E-1,4.982601509E0
2.586806935E0,-3.987117529E0,3.052493572E0,-2.449569702E-1,5.027407594E0
2.588775820E0,-4.075693130E0,2.904053450E0,-3.072652221E-1,5.013901958E0
2.590846512E0,-4.107458115E0,2.812423706E0,-3.384193480E-1,4.989535742E0
2.592831498E0,-4.140444756E0,2.601675034E0,-3.927863538E-1,4.905739177E0
2.595062704E0,-4.145331383E0,2.362215996E0,-4.386012554E-1,4.791263690E0
2.596882613E0,-4.145331383E0,2.233323336E0,-4.605923891E-1,4.731136306E0
2.599069320E0,-4.125783920E0,1.962710023E0,-5.057964325E-1,4.596754684E0
2.600939883E0,-4.097073078E0,1.687209845E0,-5.436700583E-1,4.464108198E0
2.603288166E0,-4.058588505E0,1.403768301E0,-5.797111392E-1,4.333447946E0
2.605028152E0,-4.037819386E0,1.266934514E0,-5.955936313E-1,4.273621442E0
2.607281550E0,-4.000556469E0,9.957103729E-1,-6.218608022E-1,4.169244784E0
2.609259729E0,-3.949243784E0,7.373143435E-1,-6.414085031E-1,4.068361313E0
2.611453397E0,-3.908315897E0,4.923573732E-1,-6.572909951E-1,3.993667536E0
2.613211229E0,-3.883881330E0,3.726277947E-1,-6.640105247E-1,3.957814503E0
2.615557435E0,-3.840509892E0,1.508837193E-1,-6.664539576E-1,3.900825938E0
2.617477575E0,-3.795916557E0,-5.070181563E-2,-6.603453159E-1,3.853259545E0
2.619666820E0,-3.763540745E0,-2.315179259E-1,-6.426302195E-1,3.825024586E0
2.621482267E0,-3.747658253E0,-3.237585723E-1,-6.279694438E-1,3.813673769E0
2.623754243E0,-3.715893269E0,-5.021312237E-1,-5.955936313E-1,3.796673587E0
2.625528767E0,-3.689625978E0,-6.780604124E-1,-5.534439087E-1,3.792018716E0
2.627876973E0,-3.668245792E0,-7.580837607E-1,-5.332853794E-1,3.783531614E0
2.629819229E0,-3.633426428E0,-9.224064946E-1,-4.917465150E-1,3.780798326E0
2.631916166E0,-3.603494167E0,-1.086118460E0,-4.483750761E-1,3.790232675E0
2.633774382E0,-3.562566042E0,-1.252884626E0,-4.025602043E-1,3.797848260E0
2.636131820E0,-3.536909819E0,-1.336573124E0,-3.824016452E-1,3.800314434E0
2.638056652E0,-3.491094828E0,-1.512502313E0,-3.384193480E-1,3.819677211E0
2.640142743E0,-3.433062792E0,-1.696983695E0,-3.005456924E-1,3.841354124E0
2.642029306E0,-3.368921757E0,-1.904066920E0,-2.596177161E-1,3.878466965E0
2.644361320E0,-3.340821981E0,-2.016466141E0,-2.406809032E-1,3.909623320E0
2.646083382E0,-3.251024723E0,-2.238210201E0,-1.954768747E-1,3.951829686E0
2.648353589E0,-3.174666643E0,-2.464230299E0,-1.472185254E-1,4.021518688E0
2.650217767E0,-3.134960413E0,-2.577240467E0,-1.215621829E-1,4.060162876E0
2.652527781E0,-3.057380438E0,-2.805704117E0,-6.719517708E-2,4.150188661E0
2.654319459E0,-2.965139866E0,-3.023172140E0,-1.282817032E-2,4.234594287E0
2.656644320E0,-2.879007816E0,-3.232088089E0,4.153883830E-2,4.328603111E0
2.658504959E0,-2.828917027E0,-3.331659079E0,6.963863969E-2,4.371221031E0
2.660737089E0,-2.736065388E0,-3.527135849E0,1.295034289E-1,4.465815966E0
2.662636729E0,-2.638937950E0,-3.708562851E0,1.899790913E-1,4.555603580E0
2.664824050E0,-2.530203819E0,-3.850283623E0,2.474004179E-1,4.613872810E0
2.666636767E0,-2.486221552E0,-3.896709442E0,2.767219543E-1,4.630574168E0
2.668946358E0,-2.399478674E0,-3.954741478E0,3.359758854E-1,4.637926030E0
2.670727190E0,-2.335948706E0,-3.959628582E0,3.964515328E-1,4.614378472E0
2.672985935E0,-2.282803535E0,-3.910148382E0,4.471533597E-1,4.549769058E0
2.674867575E0,-2.260201454E0,-3.869220495E0,4.740314186E-1,4.506005286E0
2.677201512E0,-2.218662500E0,-3.745825768E0,5.167919993E-1,4.384147345E0
2.679004075E0,-2.188119411E0,-3.583335638E0,5.485569835E-1,4.234273919E0
2.681206896E0,-2.171015024E0,-3.491705656E0,5.601634383E-1,4.149590064E0
2.683100113E0,-2.145358801E0,-3.293174505E0,5.748242140E-1,3.972151254E0
2.685426012E0,-2.111150265E0,-3.092199802E0,5.705481172E-1,3.787371148E0
2.687135267E0,-2.074498415E0,-2.904053450E0,5.546656251E-1,3.611748063E0
2.689417166E0,-2.058615923E0,-2.817310572E0,5.418374538E-1,3.531108353E0
2.691452627E0,-2.017076969E0,-2.659096479E0,5.088507533E-1,3.376140204E0
2.693548781E0,-1.977370739E0,-2.521651745E0,4.685336351E-1,3.238556211E0
2.695252113E0,-1.933388472E0,-2.387261391E0,4.453207552E-1,3.104080944E0
2.697616050E0,-1.918727756E0,-2.318844557E0,4.013384581E-1,3.036384171E0
2.699506882E0,-1.876578093E0,-2.194227934E0,3.610213697E-1,2.909728165E0
2.701724665E0,-1.834428310E0,-2.084882975E0,3.255911767E-1,2.796046112E0
2.703572959E0,-1.814269781E0,-2.034181356E0,3.139847219E-1,2.743730132E0
2.705811896E0,-1.772730947E0,-1.941329718E0,2.834414840E-1,2.644177595E0
2.707663613E0,-1.734246373E0,-1.844812989E0,2.681698501E-1,2.546146209E0
2.709934896E0,-1.693929315E0,-1.745852828E0,2.559525371E-1,2.445998839E0
2.711904781E0,-1.679268599E0,-1.690875053E0,2.541199327E-1,2.396576394E0
2.713973704E0,-1.650557876E0,-1.573588848E0,2.565633953E-1,2.294852488E0
2.715909152E0,-1.621847272E0,-1.428813815E0,2.687807083E-1,2.178104809E0
2.718190319E0,-1.595579982E0,-1.257771492E0,2.938261926E-1,2.052851294E0
2.720059652E0,-1.585195303E0,-1.166752577E0,3.054326177E-1,1.991844574E0
2.722203742E0,-1.568091035E0,-9.767735004E-1,3.323107064E-1,1.877079213E0
2.724086575E0,-1.554041147E0,-7.892379165E-1,3.597996235E-1,1.779717996E0
2.726422204E0,-1.540602207E0,-5.925393105E-1,3.915646076E-1,1.696431796E0
2.728147498E0,-1.536936998E0,-4.966334403E-1,4.074471295E-1,1.665783081E0
2.730414127E0,-1.523497939E0,-3.115412891E-1,4.373795092E-1,1.615365216E0
2.732252844E0,-1.519832730E0,-1.295034289E-1,4.703662395E-1,1.596216485E0
2.734587319E0,-1.519221902E0,-4.031710699E-2,4.874704778E-1,1.596022595E0
2.736372152E0,-1.521665335E0,1.429424733E-1,5.180137157E-1,1.613764590E0
2.738689781E0,-1.524108768E0,3.237585723E-1,5.485569835E-1,1.651860137E0
2.740574767E0,-1.533271790E0,5.137376785E-1,5.742133260E-1,1.715974862E0
2.742797588E0,-1.547932506E0,6.017022729E-1,5.833762884E-1,1.760246733E0
2.744623767E0,-1.564425945E0,7.843509912E-1,6.017022729E-1,1.850589269E0
2.746886088E0,-1.591914773E0,9.853256345E-1,6.194173694E-1,1.971988116E0
2.748817498E0,-1.619403720E0,1.190576315E0,6.346889734E-1,2.107788050E0
2.751010396E0,-1.640173197E0,1.291980028E0,6.426302195E-1,2.184571836E0
2.752952729E0,-1.687209845E0,1.485624313E0,6.493497491E-1,2.339959777E0
2.755051550E0,-1.737300754E0,1.658499122E0,6.524040699E-1,2.488868079E0
2.756925652E0,-1.766011477E0,1.740965962E0,6.554583907E-1,2.565031134E0
2.759269358E0,-1.822821856E0,1.888795376E0,6.530149579E-1,2.704931797E0
2.761095075E0,-1.884519339E0,2.032348633E0,6.621779203E-1,2.849619922E0
2.763276473E0,-1.951103568E0,2.171625853E0,6.695083380E-1,2.995163667E0
2.765149267E0,-1.985312104E0,2.234544992E0,6.719517708E-1,3.063686449E0
2.767496473E0,-2.058615923E0,2.353052855E0,6.719517708E-1,3.197854974E0
2.769181613E0,-2.131308794E0,2.439184904E0,6.725626588E-1,3.308238308E0
2.771491473E0,-2.190562725E0,2.491719246E0,6.786713004E-1,3.386417663E0
2.773311575E0,-2.223549604E0,2.495995283E0,6.829473376E-1,3.411829768E0
2.775664319E0,-2.290744781E0,2.476447821E0,6.976081133E-1,3.444845794E0
2.777393344E0,-2.355496407E0,2.412917614E0,7.183775306E-1,3.447695029E0
2.779768357E0,-2.423302412E0,2.313346624E0,7.403686643E-1,3.431051288E0
2.781704767E0,-2.449569702E0,2.249816656E0,7.519751191E-1,3.409916904E0
2.783820088E0,-2.517986536E0,2.117869854E0,7.721336484E-1,3.379618216E0
2.785602344E0,-2.569299221E0,1.959044814E0,7.935139537E-1,3.326983539E0
2.787874973E0,-2.593733788E0,1.873523712E0,7.996225953E-1,3.298020976E0
2.789643113E0,-2.630996704E0,1.690264106E0,8.118399382E-1,3.230823500E0
2.791999165E0,-2.663372517E0,1.496008992E0,8.283332586E-1,3.165080102E0
2.793734882E0,-2.678033352E0,1.294423461E0,8.350527883E-1,3.089451066E0
2.796040204E0,-2.678033352E0,1.190576315E0,8.374962807E-1,3.048070638E0
2.797831421E0,-2.679865837E0,9.828822017E-1,8.326093554E-1,2.973377989E0
2.800257780E0,-2.662150621E0,7.703011036E-1,8.258898258E-1,2.891799392E0
2.802093382E0,-2.632218361E0,5.784893632E-1,8.216137290E-1,2.817494022E0
2.804273780E0,-2.611449003E0,4.917465150E-1,8.246681094E-1,2.782365544E0
2.806115421E0,-2.560136318E0,3.262020350E-1,8.258898258E-1,2.709760089E0
2.808493896E0,-2.495384455E0,1.795943826E-1,8.313875794E-1,2.636361703E0
2.810173498E0,-2.458121777E0,1.123992056E-1,8.326093554E-1,2.597736436E0
2.812487511E0,-2.379320145E0,-6.108652335E-3,8.368853927E-1,2.522217046E0
2.814293190E0,-2.289522886E0,-1.105666086E-1,8.460483551E-1,2.443345625E0
2.816662780E0,-2.189951897E0,-2.119702399E-1,8.472700715E-1,2.357686847E0
2.818396036E0,-2.138639212E0,-2.583959997E-1,8.497135639E-1,2.315720042E0
2.820766857E0,-2.025629044E0,-3.414736688E-1,8.466592431E-1,2.221848141E0
2.822603729E0,-1.905899525E0,-4.068362415E-1,8.429940343E-1,2.123348221E0
2.824875934E0,-1.787391663E0,-4.618141353E-1,8.381071091E-1,2.027428119E0
2.826658767E0,-1.722640038E0,-4.856378734E-1,8.338310719E-1,1.974489073E0
2.828965896E0,-1.594358325E0,-5.155702829E-1,8.258898258E-1,1.868123441E0
2.830735959E0,-1.463022232E0,-5.332853794E-1,8.130616546E-1,1.756672024E0
2.833090819E0,-1.328021049E0,-5.430592299E-1,7.965682745E-1,1.641058881E0
2.834866075E0,-1.263269305E0,-5.406157374E-1,7.892379165E-1,1.584617052E0
2.837132088E0,-1.130711555E0,-5.241223574E-1,7.709119320E-1,1.465441256E0
2.838943459E0,-1.003651619E0,-4.948008358E-1,7.495316267E-1,1.346826677E0
2.841349934E0,-8.698720932E-1,-4.575380683E-1,7.324274182E-1,1.225752204E0
2.843116613E0,-8.100073338E-1,-4.361577928E-1,7.232644558E-1,1.170237999E0
2.845358203E0,-6.933320761E-1,-3.940080702E-1,7.092145681E-1,1.067209928E0
2.847179228E0,-5.858197808E-1,-3.573561609E-1,6.933320761E-1,9.754986464E-1
2.849578588E0,-5.338962078E-1,-3.408628106E-1,6.835582256E-1,9.319251387E-1
2.851253382E0,-4.355469346E-1,-3.005456924E-1,6.676757336E-1,8.519505447E-1
2.853572473E0,-3.433062732E-1,-2.687807083E-1,6.395758986E-1,7.740540010E-1
2.855379728E0,-2.541199327E-1,-2.412917763E-1,6.090326309E-1,7.026516968E-1
2.857745011E0,-2.144137025E-1,-2.302961946E-1,5.931501389E-1,6.714437134E-1
2.859479536E0,-1.362229437E-1,-2.028072625E-1,5.571091175E-1,6.083239638E-1
2.861849473E0,-6.719517708E-2,-1.692096740E-1,5.247332454E-1,5.554206374E-1
2.863697844E0,-3.298672289E-2,-1.514945775E-1,5.088507533E-1,5.319471967E-1
2.865958088E0,2.626720630E-2,-1.136209369E-1,4.807509482E-1,4.946929933E-1
2.867703613E0,8.002334833E-2,-7.880161703E-2,4.581489265E-1,4.717137585E-1
2.870046203E0,1.270599663E-1,-4.337143153E-2,4.428772926E-1,4.627803069E-1
2.871800690E0,1.478293836E-1,-2.443460934E-2,4.349360466E-1,4.600216750E-1
2.874169396E0,1.838704348E-1,7.941247895E-3,4.251621962E-1,4.632864052E-1
2.875901498E0,2.205223590E-1,3.115412779E-2,4.208861589E-1,4.761783797E-1
2.878210549E0,2.535090744E-1,4.825835302E-2,4.184426963E-1,4.916197815E-1
2.880005536E0,2.681698501E-1,5.558873713E-2,4.196644127E-1,5.011221363E-1
2.882428972E0,2.981022298E-1,6.658431143E-2,4.233296216E-1,5.220214349E-1
2.884248690E0,3.213151097E-1,7.208210230E-2,4.300491214E-1,5.416470031E-1
2.886443588E0,3.414736688E-1,7.147123665E-2,4.386012554E-1,5.604314993E-1
2.888276805E0,3.518583775E-1,7.391469181E-2,4.477642179E-1,5.742477638E-1
2.890663049E0,3.701843321E-1,6.963863969E-2,4.636467099E-1,5.973727911E-1
2.892343075E0,3.915646076E-1,6.414084882E-2,4.844161272E-1,6.261755942E-1
2.894656934E0,4.001167417E-1,6.169738993E-2,4.954117239E-1,6.397911777E-1
2.896468921E0,4.202753007E-1,5.803219974E-2,5.143485069E-1,6.667484167E-1
2.898831896E0,4.367686510E-1,5.436700583E-2,5.381723046E-1,6.952352518E-1
2.900580728E0,4.575380683E-1,4.764748737E-2,5.577199459E-1,7.229542897E-1
2.902936511E0,4.648684561E-1,4.581489414E-2,5.693264008E-1,7.364334570E-1
2.904789152E0,4.960225821E-1,4.642575979E-2,5.907067060E-1,7.727406846E-1
2.907045588E0,5.204572082E-1,4.642575979E-2,6.090326309E-1,8.024660754E-1
2.908850652E0,5.571091175E-1,5.436700583E-2,6.230825782E-1,8.375907350E-1
2.911135434E0,5.754350424E-1,5.497787148E-2,6.304129362E-1,8.553177915E-1
2.912914844E0,6.230825782E-1,5.497787148E-2,6.389650702E-1,8.941648766E-1
2.915259395E0,6.762278080E-1,6.658431143E-2,6.462954283E-1,9.377714537E-1
2.917008190E0,7.024950385E-1,7.208210230E-2,6.444628239E-1,9.560478230E-1
2.919300511E0,7.574729323E-1,9.407325089E-2,6.389650702E-1,9.954352720E-1
2.921240998E0,8.124507666E-1,1.295034289E-1,6.279694438E-1,1.034984545E0
2.923517511E0,8.668177724E-1,1.673770845E-1,6.102544069E-1,1.073218794E0
2.925323728E0,8.973610401E-1,1.887573600E-1,6.004805565E-1,1.096112711E0
2.927524742E0,9.511171579E-1,2.333505303E-1,5.778785348E-1,1.137110337E0
2.929396536E0,1.008538485E0,2.797762752E-1,5.461135507E-1,1.180535747E0
2.931744511E0,1.065348983E0,3.237585723E-1,5.082398653E-1,1.223967250E0
2.933461844E0,1.091616154E0,3.384193480E-1,4.899139404E-1,1.243450502E0
2.935738011E0,1.141707182E0,3.775147200E-1,4.434881806E-1,1.281676410E0
2.937774626E0,1.196684957E0,4.043927789E-1,3.970624208E-1,1.324102326E0
2.939871241E0,1.249219418E0,4.282165468E-1,3.475823104E-1,1.365551913E0
2.941581498E0,1.274264932E0,4.349360466E-1,3.249803185E-1,1.385111074E0
2.943940665E0,1.325577617E0,4.459316432E-1,2.767219543E-1,1.425687935E0
2.945861075E0,1.380555511E0,4.453207552E-1,2.241875380E-1,1.467822927E0
2.948049741E0,1.403768301E0,4.416555762E-1,1.966986060E-1,1.484693717E0
2.949840651E0,1.457524419E0,4.251621962E-1,1.466076523E-1,1.525330826E0
2.952137818E0,1.505782843E0,3.976732790E-1,9.529497474E-2,1.560322767E0
2.953921844E0,1.554041147E0,3.561344445E-1,5.192354694E-2,1.595171365E0
2.956262318E0,1.576643229E0,3.335324228E-1,3.176499158E-2,1.611848864E0
2.958017228E0,1.624901533E0,2.803871334E-1,-6.108652335E-3,1.648926697E0
2.960303203E0,1.670716405E0,2.223549485E-1,-3.848451003E-2,1.685887329E0
2.962141151E0,1.709811807E0,1.600466967E-1,-6.658431143E-2,1.718576396E0
2.964520934E0,1.733024716E0,1.233947799E-1,-7.941248268E-2,1.739226058E0
2.966390267E0,1.766011477E0,5.314527452E-2,-1.069014147E-1,1.770042053E0
2.968535318E0,1.794722080E0,-2.199114859E-2,-1.350012124E-1,1.799926744E0
2.970403267E0,1.802663326E0,-5.864306539E-2,-1.508837193E-1,1.809917118E0
2.972755203E0,1.817324162E0,-1.404990107E-1,-1.857030392E-1,1.832182496E0
2.974468613E0,1.816713214E0,-2.180788964E-1,-2.199114859E-1,1.842923321E0
2.976749049E0,1.803274155E0,-2.895501256E-1,-2.596177161E-1,1.844732585E0
2.978788741E0,1.786780834E0,-3.200933933E-1,-2.816088796E-1,1.836940144E0
2.980923972E0,1.748296380E0,-3.744603992E-1,-3.292563558E-1,1.818012808E0
2.982704113E0,1.688431501E0,-4.068362415E-1,-3.842342496E-1,1.778750297E0
2.985029587E0,1.602299571E0,-4.263839424E-1,-4.422664344E-1,1.716032278E0
2.986910382E0,1.544878244E0,-4.288274050E-1,-4.728097022E-1,1.671553394E0
2.989139434E0,1.416596532E0,-4.221078753E-1,-5.412266254E-1,1.574117865E0
2.990950498E0,1.262658477E0,-3.921754956E-1,-6.108652353E-1,1.456456104E0
2.993228126E0,1.090394497E0,-3.200933933E-1,-6.762278080E-1,1.322385718E0
2.995014728E0,9.993755221E-1,-2.693915665E-1,-7.061602473E-1,1.252990641E0
2.997353511E0,8.087855577E-1,-1.490511149E-1,-7.599163651E-1,1.119742468E0
2.999112459E0,6.114761233E-1,-2.321287990E-2,-8.124507666E-1,1.017112646E0
3.001395395E0,5.112941861E-1,4.092797264E-2,-8.350527883E-1,9.800051035E-1
3.003242305E0,3.231477141E-1,1.716531366E-1,-8.753699064E-1,9.487685268E-1
3.005613857E0,1.502728462E-1,2.926044464E-1,-9.034696817E-1,9.614867426E-1
3.007454959E0,-1.160643995E-2,3.872885704E-1,-9.181304574E-1,9.965393535E-1
3.009622357E0,-8.491026610E-2,4.221078753E-1,-9.217956662E-1,1.017394742E0
3.011658626E0,-2.113593817E-1,4.789183438E-1,-9.211847782E-1,1.059536202E0
3.013842972E0,-3.109304011E-1,5.161811113E-1,-9.016370773E-1,1.084467645E0
3.015574498E0,-3.824016452E-1,5.461135507E-1,-8.668177724E-1,1.093546560E0
3.017835895E0,-4.001167417E-1,5.632177591E-1,-8.436049223E-1,1.090402181E0
3.019815228E0,-4.086688459E-1,6.084218025E-1,-7.929030657E-1,1.079760430E0
3.022008472E0,-3.946189582E-1,6.603453159E-1,-7.287622094E-1,1.059657688E0
3.023952459E0,-3.420845270E-1,7.250970602E-1,-6.603453159E-1,1.038673917E0
3.026113280E0,-3.084869385E-1,7.684684992E-1,-6.181956530E-1,1.033379839E0
3.028111075E0,-2.235766798E-1,8.655960560E-1,-5.296201706E-1,1.039105668E0
3.030244549E0,-1.325577646E-1,9.755517840E-1,-4.282165468E-1,1.073611781E0
3.032029998E0,-8.063421398E-2,1.039692640E0,-3.793473244E-1,1.109669796E0
3.034333357E0,1.832595654E-2,1.171028733E0,-2.791654170E-1,1.203983997E0
3.036202036E0,1.172861308E-1,1.321912408E0,-1.869247705E-1,1.340204955E0
3.038457433E0,2.180788964E-1,1.480737329E0,-1.026253626E-1,1.500224452E0
3.040427433E0,2.638937831E-1,1.555873752E0,-6.352998316E-2,1.579373014E0
3.042497087E0,3.561344445E-1,1.714087844E0,-6.719517522E-3,1.750706723E0
3.044347151E0,4.447098970E-1,1.851532578E0,3.787364438E-2,1.904566668E0
3.046713626E0,5.259549618E-1,1.969429493E0,6.658431143E-2,2.039537845E0
3.048705356E0,5.638286471E-1,2.018909693E0,7.696902007E-2,2.097575582E0
3.050730356E0,6.365215778E-1,2.097100496E0,8.368854225E-2,2.193169848E0
3.052629844E0,7.134906054E-1,2.141082764E0,7.024950534E-2,2.257928085E0
3.054949549E0,7.806857824E-1,2.160019398E0,3.970624134E-2,2.297113553E0
3.056872010E0,8.155050874E-1,2.163073778E0,2.260201424E-2,2.311806127E0
3.058942126E0,8.906415105E-1,2.152078152E0,-2.626720630E-2,2.329242932E0
3.060850536E0,9.724974632E-1,2.095878601E0,-8.246681094E-2,2.311981661E0
3.063116356E0,1.056796908E0,2.005470514E0,-1.386664063E-1,2.271114278E0
3.065086510E0,1.104444385E0,1.951103568E0,-1.667662114E-1,2.248202282E0
3.067219933E0,1.194852471E0,1.816102386E0,-2.254092693E-1,2.185568494E0
3.069125690E0,1.287703991E0,1.666440368E0,-2.816088796E-1,2.124737308E0
3.071328626E0,1.334129691E0,1.585806131E0,-3.109304011E-1,2.095557404E0
3.073299164E0,1.423316002E0,1.417818189E0,-3.640756905E-1,2.041712018E0
3.075417318E0,1.506393671E0,1.265712738E0,-4.019493461E-1,2.008186720E0
3.077211921E0,1.581530094E0,1.116050839E0,-4.331034720E-1,1.983528556E0
3.079541626E0,1.619403720E0,1.045190454E0,-4.483750761E-1,1.978871320E0
3.081362228E0,1.688431501E0,9.053022861E-1,-4.721988440E-1,1.973156079E0
3.083582279E0,1.754405022E0,7.721336484E-1,-5.094616413E-1,1.983350326E0
3.085594613E0,1.787391663E0,7.037167549E-1,-5.308418870E-1,1.992932346E0
3.087799087E0,1.841758728E0,5.736024380E-1,-5.845980644E-1,2.015651226E0
3.089619844E0,1.890627980E0,4.337143302E-1,-6.505714655E-1,2.045929009E0
3.091806279E0,1.938275456E0,2.809980214E-1,-7.312057018E-1,2.090582075E0
3.093674805E0,1.957823157E0,2.021963894E-1,-7.770205736E-1,2.116061404E0
3.096025779E0,1.987144589E0,4.214970022E-2,-8.674286604E-1,2.168629221E0
3.097757728E0,2.002416372E0,-1.221730486E-1,-9.627236128E-1,2.225181866E0
3.100018741E0,1.999361992E0,-2.974913716E-1,-1.059851170E0,2.282374639E0
3.101858574E0,1.987144589E0,-3.854559660E-1,-1.107498646E0,2.307351983E0
3.104191202E0,1.937053680E0,-5.546656251E-1,-1.199739337E0,2.345038463E0
3.105969728E0,1.855197787E0,-7.195992470E-1,-1.284038782E0,2.368192876E0
3.108294664E0,1.748296380E0,-8.686503768E-1,-1.366505504E0,2.382945866E0
3.110267510E0,1.687209845E0,-9.431759119E-1,-1.405600905E0,2.389973173E0
3.112403202E0,1.533882618E0,-1.081231475E0,-1.479515672E0,2.389733042E0
3.114225574E0,1.369559884E0,-1.197906733E0,-1.541213036E0,2.384536105E0
3.116491549E0,1.186300278E0,-1.290147424E0,-1.591303945E0,2.367284725E0
3.118388690E0,1.087340117E0,-1.333518863E0,-1.615127683E0,2.359919176E0
3.120615664E0,8.833111525E-1,-1.402546644E0,-1.653001308E0,2.340894916E0
3.122586087E0,6.847799420E-1,-1.458135366E0,-1.680490255E0,2.327902449E0
3.124656279E0,5.784893632E-1,-1.486235142E0,-1.690264106E0,2.323905675E0
3.126577151E0,3.878994286E-1,-1.522276163E0,-1.701259732E0,2.315615547E0
3.128874125E0,2.168571651E-1,-1.543045640E0,-1.697594523E0,2.304309884E0
3.130741459E0,5.681046844E-2,-1.554041147E0,-1.689653277E0,2.296344816E0
3.132889087E0,-3.665191587E-3,-1.559538960E0,-1.676825047E0,2.289960139E0
3.134810459E0,-1.221730486E-1,-1.552819490E0,-1.638951421E0,2.261047630E0
3.137109318E0,-1.857030392E-1,-1.497841597E0,-1.581530094E0,2.186150156E0
3.138849805E0,-1.362229437E-1,-1.332907915E0,-1.489289522E0,2.003293159E0
3.141103548E0,-6.475171447E-2,-1.161865711E0,-1.427592039E0,1.841777333E0
3.142941536E0,2.535090744E-1,-5.931501389E-1,-1.277930140E0,1.431502491E0
3.145278895E0,6.053674817E-1,6.963863969E-2,-1.121548533E0,1.276397446E0
3.147110344E0,7.648032904E-1,3.536909819E-1,-1.044579625E0,1.342075995E0
3.149382933E0,9.957103729E-1,8.118399382E-1,-8.765916228E-1,1.555292932E0
3.151278190E0,1.169806957E0,1.146594048E0,-6.908885837E-1,1.777766369E0
3.153493548E0,1.298699498E0,1.384831548E0,-4.960225821E-1,1.962247998E0
3.155289767E0,1.350012183E0,1.470963478E0,-3.982841372E-1,2.035901938E0
3.157583318E0,1.419650793E0,1.600466967E0,-2.119702399E-1,2.149845173E0
3.159391497E0,1.464244008E0,1.677435994E0,-4.642575979E-2,2.227096177E0
3.161709125E0,1.488067746E0,1.720196486E0,9.651670605E-2,2.276562549E0
3.163532844E0,1.487456918E0,1.732413888E0,1.557706445E-1,2.288678758E0
3.165750741E0,1.477683067E0,1.735468149E0,2.522873580E-1,2.293260965E0
3.167625113E0,1.441641927E0,1.723861694E0,3.335324228E-1,2.271843847E0
3.169969010E0,1.397048831E0,1.709811807E0,3.872885704E-1,2.241694512E0
3.171788844E0,1.365894675E0,1.696372747E0,4.092797041E-1,2.216045721E0
3.173978318E0,1.296866894E0,1.678046823E0,4.422664344E-1,2.166403581E0
3.176014741E0,1.216232657E0,1.666440368E0,4.587597847E-1,2.113458284E0
3.178198587E0,1.134376764E0,1.657888293E0,4.691445231E-1,2.062886526E0
3.179943536E0,1.089783549E0,1.651168704E0,4.715879560E-1,2.033809596E0
3.182191587E0,1.007316828E0,1.653001308E0,4.660901725E-1,1.991065184E0
3.184227664E0,9.303477407E-1,1.652390480E0,4.563163519E-1,1.950427089E0
3.186324010E0,8.936958313E-1,1.651168704E0,4.495968223E-1,1.930592559E0
3.188155536E0,8.210029006E-1,1.647503614E0,4.312708676E-1,1.890584165E0
3.190392471E0,7.550294399E-1,1.638340592E0,4.105014503E-1,1.850065078E0
3.192286305E0,7.244861722E-1,1.630399346E0,4.001167417E-1,1.828435301E0
3.194500741E0,6.737843752E-1,1.616349459E0,3.781255782E-1,1.791521674E0
3.196303497E0,6.316346526E-1,1.599856019E0,3.561344445E-1,1.756511702E0
3.198587010E0,5.882632136E-1,1.569312811E0,3.359758854E-1,1.709291111E0
3.200385497E0,5.748242140E-1,1.555262923E0,3.219259977E-1,1.689053577E0
3.202709202E0,5.393940210E-1,1.510669708E0,2.962696552E-1,1.631209547E0
3.204574921E0,5.100724697E-1,1.463633180E0,2.736676335E-1,1.573940908E0
3.206749048E0,4.850270152E-1,1.409266114E0,2.528982162E-1,1.511700927E0
3.208767190E0,4.721988440E-1,1.381777167E0,2.425135076E-1,1.480233998E0
3.210965010E0,4.526511431E-1,1.324355841E0,2.223549485E-1,1.417128496E0
3.212952087E0,4.343251884E-1,1.263269305E0,2.015855312E-1,1.350971663E0
3.214976779E0,4.227187634E-1,1.198517561E0,1.820378453E-1,1.283850955E0
3.216930651E0,4.111123085E-1,1.167974353E0,1.740965992E-1,1.250394756E0
3.219195356E0,3.995058835E-1,1.102611780E0,1.533271819E-1,1.182737043E0
3.220936151E0,3.836233616E-1,1.037860036E0,1.319468915E-1,1.114329538E0
3.223186779E0,3.781255782E-1,1.006095052E0,1.185078546E-1,1.081318786E0
3.225001536E0,3.604104817E-1,9.401215911E-1,9.285151958E-2,1.011111134E0
3.227358933E0,3.426954150E-1,8.710938692E-1,6.230825558E-2,9.381508382E-1
3.229131844E0,3.286454976E-1,7.971791625E-1,2.748893574E-2,8.627039595E-1
3.231461356E0,3.152064681E-1,7.580837607E-1,6.719517522E-3,8.210306071E-1
3.233339651E0,2.926044464E-1,6.731734872E-1,-4.153883830E-2,7.351907106E-1
3.235569125E0,2.645046413E-1,5.742133260E-1,-9.773843735E-2,6.397159144E-1
3.237373997E0,2.333505303E-1,4.630358517E-1,-1.637118906E-1,5.437428189E-1
3.239657125E0,2.180788964E-1,4.007275999E-1,-1.991420686E-1,4.977937101E-1
3.241518805E0,1.795943826E-1,2.730567753E-1,-2.761110961E-1,4.278451615E-1
3.243781202E0,1.435533315E-1,1.288925707E-1,-3.561344445E-1,4.050340681E-1
3.245594036E0,1.032362282E-1,-2.687807009E-2,-4.447098970E-1,4.573259691E-1
3.247820548E0,8.613199741E-2,-1.105666086E-1,-4.917465150E-1,5.113299629E-1
3.249856048E0,4.276056588E-2,-2.748893499E-1,-5.882632136E-1,6.507274616E-1
3.252035933E0,-1.221730490E-3,-4.477642179E-1,-6.951646209E-1,8.268906442E-1
3.253971202E0,-2.748893574E-2,-5.302310586E-1,-7.501425147E-1,9.190290580E-1
3.256040394E0,-7.757988572E-2,-7.043276429E-1,-8.649851680E-1,1.118166091E0
3.258075433E0,-1.313360333E-1,-8.735373020E-1,-9.792169929E-1,1.318780683E0
3.260258048E0,-1.869247705E-1,-1.039692640E0,-1.089172721E0,1.517299862E0
3.262078267E0,-2.125810981E-1,-1.119716048E0,-1.145983219E0,1.616240171E0
3.264248471E0,-2.614503205E-1,-1.256549835E0,-1.245554209E0,1.788485126E0
3.266176959E0,-3.078760803E-1,-1.373225093E0,-1.328631878E0,1.935406289E0
3.268418740E0,-3.488040566E-1,-1.470963478E0,-1.390329242E0,2.053877607E0
3.270254074E0,-3.665191531E-1,-1.510058880E0,-1.416596532E0,2.102702985E0
3.272521509E0,-3.964515328E-1,-1.578475833E0,-1.439198494E0,2.172568084E0
3.274543971E0,-4.269948006E-1,-1.632231951E0,-1.433089852E0,2.213651333E0
3.276572817E0,-4.508185387E-1,-1.655444860E0,-1.415374756E0,2.224189907E0
3.278366113E0,-4.563163519E-1,-1.656055689E0,-1.363451242E0,2.193112936E0
3.280624933E0,-4.599815309E-1,-1.640784025E0,-1.285260439E0,2.134396782E0
3.282421805E0,-4.495968223E-1,-1.579697490E0,-1.177748203E0,2.021057221E0
3.284748009E0,-4.343251884E-1,-1.536326051E0,-1.114829063E0,1.947249328E0
3.286555690E0,-3.878994286E-1,-1.393994451E0,-9.621127844E-1,1.737626975E0
3.288787471E0,-3.341432810E-1,-1.201571941E0,-7.837401032E-1,1.472981810E0
3.290763844E0,-2.773328125E-1,-9.505063295E-1,-5.839871764E-1,1.149528944E0
3.293001394E0,-2.510656118E-1,-8.081747293E-1,-4.758640230E-1,9.708897481E-1
3.294879497E0,-1.966986060E-1,-5.039638281E-1,-2.583959997E-1,5.995317959E-1
3.297016779E0,-1.435533315E-1,-1.966986060E-1,-4.153883830E-2,2.470290988E-1
3.298908459E0,-1.154535338E-1,-4.886921868E-2,5.742133409E-2,1.378946287E-1
3.301235202E0,-6.291911751E-2,2.278527319E-1,2.419026345E-1,3.382197028E-1
3.302965728E0,-1.832595794E-3,4.605923891E-1,3.915646076E-1,6.045424297E-1
3.305226971E0,6.108652428E-2,6.603453159E-1,5.033529401E-1,8.325573146E-1
3.307082613E0,9.162978828E-2,7.379252315E-1,5.424483418E-1,9.204237442E-1
3.309401086E0,1.588249654E-1,8.594874144E-1,5.986479521E-1,1.059397638E0
3.311189459E0,2.144137025E-1,9.248499870E-1,6.206390858E-1,1.134245833E0
3.313504355E0,2.687807083E-1,9.450085163E-1,6.157521605E-1,1.159497688E0
3.315395844E0,2.981022298E-1,9.437867999E-1,6.041457057E-1,1.159564788E0
3.317612548E0,3.524692357E-1,9.181304574E-1,5.699372888E-1,1.136673485E0
3.319445267E0,4.074471295E-1,8.753699064E-1,5.229006410E-1,1.098048595E0
3.321698894E0,4.575380683E-1,8.179485798E-1,4.630358517E-1,1.045362695E0
3.323502959E0,4.838052690E-1,7.800748944E-1,4.300491214E-1,1.013669880E0
3.325822663E0,5.338962078E-1,7.092145681E-1,3.646865487E-1,9.597013823E-1
3.327599344E0,5.839871764E-1,6.267477274E-1,2.981022298E-1,9.070384090E-1
