"Time (s)","Linear Acceleration x (m/s^2)","Linear Acceleration y (m/s^2)","Linear Acceleration z (m/s^2)","Absolute acceleration (m/s^2)"
3.853607000E-3,-2.024726868E-1,5.541839600E-1,9.410889149E-1,1.110749025E0
1.206514500E-2,-2.797813416E-1,5.701136589E-1,1.189415932E0,1.348338771E0
2.029118400E-2,-1.727228165E-1,5.090341568E-1,1.305001974E0,1.411374896E0
2.850514500E-2,-1.945037842E-1,5.255217552E-1,1.269139290E0,1.387342558E0
3.671279900E-2,-3.633937836E-1,4.924588203E-1,1.101450682E0,1.260065211E0
4.492145300E-2,-1.760616302E-1,3.568902016E-1,1.079350471E0,1.150376353E0
5.313068300E-2,-1.359758377E-1,2.025690079E-1,1.190659046E0,1.215398122E0
6.134668300E-2,-1.519665718E-1,1.249828339E-1,1.173459530E0,1.189841089E0
6.955368300E-2,-9.768390656E-2,7.450342178E-2,1.064657927E0,1.071722635E0
7.776187600E-2,-1.830420494E-1,1.432719231E-1,9.912736416E-1,1.018162398E0
8.596887600E-2,-3.331127167E-1,1.726479530E-1,9.209830761E-1,9.944753512E-1
9.417656800E-2,-2.559900284E-1,2.821936607E-1,1.080396414E0,1.145609256E0
1.024005290E-1,-2.001442909E-1,2.854433060E-1,1.257242680E0,1.304681867E0
1.106137220E-1,-1.681408882E-1,3.193273544E-1,1.565414429E0,1.606475537E0
1.188205290E-1,-1.323275566E-1,2.584776878E-1,1.643996954E0,1.669445202E0
1.270273750E-1,-1.186003685E-1,3.310532570E-1,1.609380960E0,1.647352234E0
1.352355290E-1,4.826402664E-2,2.367291451E-1,1.545718431E0,1.564485722E0
1.434506830E-1,3.475618362E-2,2.140522003E-2,1.496239662E0,1.496796346E0
1.516583370E-1,1.341452599E-1,1.190977097E-1,1.581123829E0,1.591267349E0
1.598682220E-1,8.727025986E-2,5.127096176E-2,1.422240257E0,1.425837354E0
1.680756450E-1,1.201643944E-1,-7.362842560E-2,1.113656521E0,1.122537961E0
1.762831450E-1,1.347579956E-1,-1.662383080E-1,9.363484383E-1,9.604911714E-1
1.845068750E-1,1.160788536E-1,-3.180217743E-1,9.340071678E-1,9.934694453E-1
1.927223370E-1,-4.696846008E-2,-2.685971260E-1,9.906196594E-1,1.027461806E0
2.009304520E-1,-2.825055122E-1,-1.116251945E-1,9.533171654E-1,1.000541437E0
2.091391060E-1,-4.098987579E-1,7.228660583E-2,8.561587334E-1,9.519717022E-1
2.173491060E-1,-6.636667252E-2,-1.886544228E-1,8.056998253E-1,8.301489233E-1
2.255673370E-1,4.847860336E-2,-5.899658203E-1,5.864238739E-1,8.332483447E-1
2.337764140E-1,-3.061318398E-1,-9.789886475E-1,4.922604561E-1,1.137741549E0
2.420096440E-1,-5.282511711E-1,-1.117946148E0,3.411140442E-1,1.282658053E0
2.502182600E-1,-7.051663399E-1,-1.148146152E0,3.276596069E-1,1.386672266E0
2.584267210E-1,-8.329119682E-1,-1.114275455E0,2.715764046E-1,1.417429321E0
2.666517980E-1,-9.865441322E-1,-1.085436344E0,2.957391739E-1,1.496296442E0
2.748701440E-1,-1.091329575E0,-1.012181759E0,3.958759308E-1,1.540204501E0
2.830786830E-1,-1.083167076E0,-1.148056984E0,5.770530701E-1,1.680558240E0
2.912879130E-1,-1.045475483E0,-1.194493771E0,7.081098557E-1,1.738175458E0
2.994974130E-1,-1.159927845E0,-1.494866848E0,7.757973671E-1,2.044974585E0
3.077156060E-1,-1.169038296E0,-1.413764477E0,6.034479141E-1,1.931199088E0
3.159244520E-1,-1.363357067E0,-1.023163795E0,3.402228355E-1,1.738205460E0
3.241321440E-1,-1.615332127E0,-6.372737885E-1,4.645686150E-1,1.797564953E0
3.323402980E-1,-1.832760334E0,-4.269914627E-1,6.913681030E-1,2.004824682E0
3.405482210E-1,-1.635231018E0,-4.964218140E-1,6.390981674E-1,1.824516804E0
3.487739130E-1,-1.149019718E0,-6.321530342E-1,6.375303268E-1,1.458186781E0
3.569891820E-1,-7.590265274E-1,-7.854309082E-1,5.877318382E-1,1.240343378E0
3.651971050E-1,-7.203016281E-1,-8.240303993E-1,6.372270584E-1,1.266459182E0
3.734042980E-1,-7.306065559E-1,-8.459815979E-1,6.702537537E-1,1.303346039E0
3.816126440E-1,-6.702733040E-1,-1.020176411E0,8.647847176E-1,1.495954150E0
3.898305280E-1,-6.095352173E-1,-1.207407951E0,1.163890362E0,1.784378860E0
3.980382590E-1,-6.743927002E-1,-1.449496269E0,1.454938412E0,2.161640750E0
4.062454900E-1,-6.750373840E-1,-1.636968613E0,1.795186520E0,2.521514693E0
4.144527970E-1,-7.421422005E-1,-1.666601658E0,2.231928825E0,2.882679728E0
4.226615280E-1,-8.147244453E-1,-1.771176815E0,2.587738991E0,3.239943875E0
4.308869130E-1,-8.174304962E-1,-1.855390549E0,2.855222225E0,3.501851033E0
4.391025670E-1,-1.070694447E0,-2.052939415E0,3.093060970E0,3.863673512E0
4.473116430E-1,-1.126000404E0,-2.087799072E0,2.997985363E0,3.822917487E0
4.555199900E-1,-1.454998016E0,-1.591287136E0,2.562768459E0,3.349178430E0
4.637279130E-1,-1.103694439E0,-1.383050442E0,2.495673656E0,3.059306611E0
4.719446050E-1,-2.634639740E-1,-1.430670738E0,2.670279503E0,3.040826310E0
4.801532200E-1,4.936852455E-1,-1.841232300E0,2.627727509E0,3.246353857E0
4.883873740E-1,9.949417114E-1,-2.038814545E0,2.571445942E0,3.429140999E0
4.965944130E-1,1.467785358E0,-1.716972351E0,2.957983971E0,3.721835177E0
5.048024130E-1,2.169709682E0,-9.024991989E-1,3.371475220E0,4.109621645E0
5.130277590E-1,2.762560368E0,-1.739211082E-1,2.663187981E0,3.841166302E0
5.212428360E-1,2.924115181E0,2.002429962E-1,2.818794250E-1,2.944486858E0
5.294504510E-1,2.609755039E0,3.645510674E-1,-1.261388302E0,2.921441304E0
5.376576820E-1,1.823823452E0,2.252020836E-1,-1.513966084E0,2.380995856E0
5.458651050E-1,1.213470936E0,2.964048386E-1,-6.223580837E-1,1.395599199E0
5.540822580E-1,-2.578644753E-1,9.365506172E-1,4.363648891E-1,1.064911012E0
5.622927580E-1,2.158255577E-1,9.429874420E-1,-1.366734505E-2,9.674672002E-1
5.705019510E-1,8.754706383E-1,6.569590569E-1,-7.484602928E-1,1.325985238E0
5.787122970E-1,1.686553955E-1,-1.326947212E-1,-9.494028091E-1,9.733541110E-1
5.869236430E-1,-8.459248543E-1,-5.036783218E-1,-1.113552213E0,1.486364438E0
5.951514120E-1,-1.340222836E0,-2.972335815E-1,-1.521926045E0,2.049586285E0
6.033686430E-1,-1.221443653E0,2.166385651E-1,-2.031526327E0,2.380326886E0
6.115781040E-1,-1.429316759E0,3.827962875E-1,-2.504078388E0,2.908588656E0
6.197870270E-1,-5.994582176E-1,4.089722633E-1,-2.457251072E0,2.562165353E0
6.279954120E-1,8.919553757E-1,6.179056168E-1,-3.345745564E0,3.517300829E0
6.362138740E-1,1.293191433E0,9.104433060E-1,-3.948765755E0,4.253704513E0
6.444231810E-1,1.075300217E0,1.207962036E0,-3.980197906E0,4.296209749E0
6.526333350E-1,1.829092503E0,1.372747421E0,-4.277191162E0,4.850193718E0
6.608422970E-1,1.374139309E0,1.099322319E0,-4.476476192E0,4.809948805E0
6.690534500E-1,2.657279491E0,-3.769855499E-1,-4.138835907E0,4.932870875E0
6.772801810E-1,4.082535744E0,-3.194633007E0,-3.624585152E0,6.325377117E0
6.854953730E-1,2.787280798E0,-4.348845482E0,-2.838008165E0,5.893698467E0
6.937042960E-1,1.666461229E0,-5.594611168E0,-2.427516937E0,6.322151978E0
7.019114120E-1,1.252437115E0,-6.754910469E0,-1.821234703E0,7.107341980E0
7.101178730E-1,1.703892708E0,-7.742146492E0,-1.749457121E0,8.118169922E0
7.183337580E-1,1.862138987E0,-8.559264183E0,-1.664869785E0,8.916297234E0
7.265416810E-1,1.483323336E0,-9.124414444E0,-8.756465316E-1,9.285577199E0
7.347760270E-1,-5.351985693E-1,-9.527298927E0,1.436221600E-2,9.542330356E0
7.429828350E-1,-2.027177095E0,-9.731404305E0,3.456728458E-1,9.946314213E0
7.511904120E-1,-2.610295296E0,-9.668080330E0,-2.646825910E-1,1.001775802E1
7.594164120E-1,-2.167459249E0,-9.637553215E0,-2.214058042E-1,9.880755644E0
7.676339120E-1,-6.995865107E-1,-5.074147701E0,-7.734540105E-1,5.180214985E0
7.758409880E-1,2.883537292E0,4.111461639E-1,-3.144431591E0,4.286172945E0
7.840481810E-1,4.132562637E0,4.144802094E0,-3.334167957E0,6.736032535E0
7.922553340E-1,2.509548664E0,7.773251534E0,-2.518724203E0,8.547821097E0
8.004717960E-1,-4.185364723E0,1.209956264E1,-6.714247227E0,1.445675655E1
8.086791420E-1,-1.378737068E1,1.536807919E1,-1.188717461E1,2.382381935E1
8.168863730E-1,-1.885551453E1,1.655500603E1,-1.208709717E1,2.785132978E1
8.250928730E-1,-1.775146484E1,1.498064137E1,-8.394103050E0,2.469807859E1
8.333013340E-1,-1.305676556E1,1.055497169E1,-3.676944256E0,1.718739286E1
8.415342190E-1,-8.377008438E0,5.464306831E0,-5.048831105E-1,1.001438098E1
8.497520270E-1,-4.580594540E0,1.636641502E0,1.566857815E0,5.110331218E0
8.579599500E-1,-2.098423719E0,-8.146867752E-1,2.467275858E0,3.339842333E0
8.661690650E-1,-8.875324726E-1,-2.165550232E0,2.531331062E0,3.447456837E0
8.743801800E-1,-1.293103695E-1,-3.046124458E0,2.573683500E0,3.989917561E0
8.826001030E-1,2.839319706E-1,-3.450839520E0,2.631527424E0,4.349005327E0
8.908115260E-1,7.184424400E-1,-3.508114338E0,2.602776051E0,4.426902858E0
8.990212570E-1,8.972542286E-1,-3.386842728E0,2.464982033E0,4.283912375E0
9.072304110E-1,1.013365626E0,-3.209483624E0,2.363671541E0,4.112740957E0
9.154382960E-1,1.092384338E0,-2.965708733E0,2.404520750E0,3.971202824E0
9.236625650E-1,1.199017167E0,-2.657426357E0,2.806864023E0,4.046979448E0
9.318771420E-1,1.086934566E0,-2.283893108E0,3.401321650E0,4.238700679E0
9.400851800E-1,8.213315010E-1,-1.669307232E0,3.660216808E0,4.105893222E0
9.482914490E-1,6.374670267E-1,-1.109927177E0,3.168579817E0,3.417338234E0
9.564979490E-1,6.622213125E-1,-5.236740112E-1,2.476230621E0,2.616197551E0
9.647163720E-1,6.312292814E-1,-1.083641052E-1,1.787790298E0,1.899049061E0
9.729249110E-1,5.669908524E-1,1.387872696E-1,1.412980556E0,1.528808224E0
9.811589880E-1,5.667369366E-1,3.346614838E-1,1.276744843E0,1.436407483E0
9.893671800E-1,5.374310017E-1,4.122972488E-1,1.205458403E0,1.382733186E0
9.975741030E-1,5.168004036E-1,5.125370026E-1,9.881351590E-1,1.227268483E0
1.005799334E0,4.151437283E-1,5.152721405E-1,9.004793763E-1,1.117458188E0
1.014015987E0,3.085596561E-1,5.796375275E-1,8.532937765E-1,1.076707478E0
1.022225411E0,2.396156788E-1,7.234678268E-1,8.519929647E-1,1.143115647E0
1.030435680E0,1.604335308E-1,9.893341064E-1,8.116852045E-1,1.289710728E0
1.038646718E0,1.657001972E-1,1.354457855E0,9.312825203E-1,1.652059251E0
1.046866526E0,1.979753971E-1,1.779774666E0,1.176032066E0,2.142392014E0
1.055077641E0,6.136550903E-1,1.967184067E0,2.559939384E0,3.286285954E0
1.063288833E0,1.136899590E0,2.046844482E0,4.742561340E0,5.289045385E0
1.071499603E0,1.138148427E0,2.055994034E0,6.127671242E0,6.562838422E0
1.079710833E0,7.133352757E-1,2.064034462E0,6.105484962E0,6.484291180E0
1.087939449E0,4.606072903E-1,2.336542130E0,4.877141953E0,5.427531835E0
1.096159103E0,7.369294167E-1,2.665677071E0,3.559230328E0,4.507440486E0
1.104370795E0,8.768572807E-1,2.860444069E0,2.678056002E0,4.015345927E0
1.112581026E0,1.105400801E0,2.981700897E0,2.849564791E0,4.269949727E0
1.120791910E0,8.562368155E-1,3.409420967E0,3.860013247E0,5.220823218E0
1.129017756E0,5.736120939E-1,4.230418205E0,5.558279991E0,7.008562298E0
1.137228525E0,7.021596432E-1,4.918142319E0,6.283464432E0,8.010185847E0
1.145439525E0,3.665969372E-1,5.735513687E0,7.068694115E0,9.110266026E0
1.153649256E0,-6.210637093E-2,6.864267349E0,1.352233529E0,6.996467606E0
1.161859218E0,-1.123702765E0,7.356009483E0,-5.084707260E0,9.012648409E0
1.170086064E0,-9.079942703E-1,6.283881187E0,-5.330414295E0,8.290050237E0
1.178304064E0,-2.908749580E-1,5.822139740E0,-1.808635235E0,6.103530192E0
1.186514141E0,1.279904962E0,5.919758797E0,3.007200241E0,6.762022938E0
1.194723871E0,1.776680231E0,5.645532608E0,3.387042046E0,6.819141067E0
1.202934141E0,1.381136656E0,4.837491035E0,1.238656282E0,5.181035357E0
1.211155179E0,1.492988229E0,4.150155067E0,-6.292641163E-1,4.455196322E0
1.219367679E0,1.363072038E0,4.033804893E0,-2.027047634E0,4.715768168E0
1.227603871E0,1.215414166E0,4.546507835E0,-2.144941092E0,5.171918153E0
1.235816256E0,5.790240765E-1,5.219794273E0,-1.877423525E0,5.577296857E0
1.244027833E0,4.688649178E-1,5.890809059E0,-1.532739758E0,6.104978038E0
1.252257640E0,-9.221163988E-1,6.286785126E0,-9.822399020E-1,6.429522618E0
1.260476217E0,-3.365524292E0,6.459791183E0,-1.004149675E0,7.352820715E0
1.268688487E0,-7.944307804E0,6.609430313E0,-1.039530039E0,1.038639583E1
1.276899410E0,-1.346813965E1,6.852935791E0,-4.839122295E-1,1.511911656E1
1.285108948E0,-1.455459118E1,5.692620277E0,-6.299685240E-1,1.564093700E1
1.293328410E0,-1.096153927E1,2.842940331E0,-2.177741528E0,1.153170460E1
1.301539333E0,-6.079487801E0,6.009988785E-1,-3.587840080E0,7.084770145E0
1.309749833E0,-2.888776779E0,-2.934637070E-1,-3.651369572E0,4.665152942E0
1.317959025E0,-1.018213511E0,2.871761322E-1,-4.054121017E0,4.189883782E0
1.326168640E0,1.358485222E-1,2.379961014E-1,-3.726179600E0,3.736242949E0
1.334393755E0,6.840449572E-1,1.172008514E-1,-2.991552114E0,3.070999446E0
1.342611525E0,1.263160944E0,-4.121284485E-1,-3.283337831E0,3.541995588E0
1.350820486E0,1.891480923E0,-1.139210701E0,-3.820538282E0,4.412710490E0
1.359028063E0,2.173486471E0,-1.825445652E0,-4.625669479E0,5.427072268E0
1.367236140E0,2.225906372E0,-2.379636765E0,-4.928182125E0,5.907986913E0
1.375453948E0,2.133409023E0,-3.135560513E0,-5.462121010E0,6.649657113E0
1.383663101E0,1.981429338E0,-3.815875053E0,-6.020559788E0,7.398250118E0
1.391864909E0,1.438067079E0,-4.282175064E0,-6.369793892E0,7.808926586E0
1.400074755E0,1.139939666E0,-4.670262337E0,-6.680313110E0,8.230273142E0
1.408283871E0,9.347194433E-1,-5.070058823E0,-6.903017044E0,8.615732193E0
1.416507217E0,7.719245553E-1,-5.287178516E0,-7.252517223E0,9.008281204E0
1.424724332E0,5.136328340E-1,-5.302078724E0,-7.007898331E0,8.802641450E0
1.432934101E0,-2.281391621E-2,-5.330276489E0,-6.569896698E0,8.460254757E0
1.441143024E0,-8.666733503E-1,-5.456953049E0,-6.017628670E0,8.169535732E0
1.449351640E0,-1.536960244E0,-5.627668858E0,-5.580149651E0,8.072854123E0
1.457569255E0,-2.073937416E0,-5.763277054E0,-5.646839142E0,8.330868568E0
1.465779717E0,-2.460933924E0,-6.014595509E0,-5.548991203E0,8.545341320E0
1.474015947E0,-2.579631090E0,-6.387616634E0,-5.479820251E0,8.802532182E0
1.482226678E0,-2.634532928E0,-6.556947708E0,-5.531899929E0,8.974198784E0
1.490437524E0,-2.634528637E0,-6.773433685E0,-5.443917274E0,9.080549560E0
1.498664870E0,-2.379380703E0,-6.993352890E0,-4.979827404E0,8.908822489E0
1.506882716E0,-2.072401047E0,-7.185928345E0,-4.402514458E0,8.678395348E0
1.515093601E0,-1.543038487E0,-7.363246918E0,-3.723571777E0,8.394245632E0
1.523305601E0,-1.171051979E0,-7.534860611E0,-2.990417004E0,8.190731409E0
1.531518678E0,-9.016058445E-1,-7.625801086E0,-2.100925922E0,7.961132146E0
1.539738524E0,-7.670981884E-1,-7.746075630E0,-9.920682907E-1,7.846931043E0
1.547947216E0,-7.601882219E-1,-7.113402367E0,1.539900303E0,7.317764160E0
1.556156870E0,8.226242661E-1,-4.811526299E0,6.599901676E0,8.208909680E0
1.564366370E0,1.802051306E0,-7.881689072E-1,1.290378761E1,1.305282858E1
1.572576562E0,2.817244768E0,5.707942009E0,1.892746735E1,1.996913844E1
1.580804062E0,3.986158371E0,8.027753830E0,1.679817200E1,1.903977081E1
1.589021255E0,4.235086918E0,8.495494843E0,9.963825226E0,1.376180246E1
1.597230639E0,2.463913202E0,8.125747681E0,2.529067516E0,8.859730591E0
1.605439793E0,5.668027401E-1,8.838874817E0,-1.452365398E0,8.975318302E0
1.613648947E0,-1.136386395E-1,9.242409706E0,-2.389007568E0,9.546853308E0
1.621867024E0,6.547145844E-1,8.040901184E0,-9.869165421E-1,8.127653247E0
1.630077831E0,2.026569366E0,5.523478508E0,4.981784821E-1,5.904572806E0
1.638288447E0,2.778848648E0,2.236516953E0,1.745846272E0,3.971396114E0
1.646499254E0,2.226462841E0,-8.806195259E-1,2.210587502E0,3.258730525E0
1.654708524E0,7.817783356E-1,-3.262845993E0,1.412648201E0,3.640455504E0
1.662934485E0,-9.454898834E-1,-4.558368206E0,2.245631218E-1,4.660804696E0
1.671152754E0,-2.367275476E0,-4.462592125E0,-3.271906376E-1,5.062190768E0
1.679363793E0,-3.311636686E0,-3.289490223E0,5.178155899E-1,4.696362045E0
1.687573677E0,-4.082889557E0,-1.137139797E0,2.366578341E0,4.854252475E0
1.695783254E0,-5.990185261E0,1.921226501E0,5.781798840E0,8.544157568E0
1.704001908E0,-1.187381649E1,9.040652275E0,1.197127247E1,1.913197000E1
1.712211446E0,-1.512327766E1,1.929877090E1,1.232922173E1,2.744386624E1
1.720447754E0,-8.940385818E0,1.940918350E1,7.364937782E0,2.260285848E1
1.728657754E0,-4.035005093E0,1.299410725E1,-3.781683445E0,1.412194105E1
1.736866869E0,-6.460691452E0,5.635713577E0,-1.236614227E1,1.504736775E1
1.745092292E0,-4.543537140E0,4.996871948E-2,-1.270489311E1,1.349298098E1
1.753307562E0,-1.687478304E0,-3.416879654E0,-9.984644890E0,1.068717845E1
1.761515100E0,-4.119157791E-3,-5.457667351E0,-8.017309189E0,9.698628589E0
1.769722792E0,1.073779941E0,-6.743277550E0,-6.616526604E0,9.508060779E0
1.777930254E0,1.823737502E0,-7.480566025E0,-5.747302055E0,9.608140686E0
1.786147331E0,2.298805237E0,-7.866009712E0,-5.024162292E0,9.612534580E0
1.794356715E0,2.719997883E0,-7.842823029E0,-4.551067829E0,9.466809385E0
1.802566715E0,3.426036835E0,-7.393720627E0,-4.146483898E0,9.143203039E0
1.810777215E0,4.096775055E0,-6.496934891E0,-4.169888496E0,8.739662402E0
1.818985484E0,4.840691566E0,-4.925621986E0,-4.751193523E0,8.382594270E0
1.827211331E0,5.650241852E0,-2.309973717E0,-6.072964191E0,8.610581027E0
1.835427215E0,5.617418289E0,1.330388069E0,-7.898961067E0,9.783603967E0
1.843636177E0,4.071757793E0,5.723481178E0,-9.679141998E0,1.195923234E1
1.851844369E0,2.002560139E0,8.617826462E0,-1.176897335E1,1.472365151E1
1.860053638E0,-1.282062531E-1,9.721823692E0,-1.001377010E1,1.395728786E1
1.868271061E0,-1.704545736E0,9.410268784E0,-8.516015053E0,1.280551237E1
1.876479638E0,-1.596580744E0,7.476435661E0,-5.996267796E0,9.716037657E0
1.884689061E0,-4.452998638E-1,4.979171753E0,-3.826707602E0,6.295564659E0
1.892900100E0,1.709644794E-1,3.324086189E0,-2.450597525E0,4.133304498E0
1.901110099E0,4.530265331E-1,2.326266289E0,-1.661065817E0,2.894112564E0
1.909335599E0,6.676468849E-1,1.579303741E0,-1.180797935E0,2.081882906E0
1.917552099E0,9.042418003E-1,9.745674133E-1,-7.805030346E-1,1.541628964E0
1.925761946E0,1.234111547E0,4.244918823E-1,-4.342799187E-1,1.375435828E0
1.933971292E0,1.627909899E0,-8.335018158E-2,-9.909939766E-2,1.633051923E0
1.942180099E0,1.867380023E0,-6.446218491E-1,1.319382191E-1,1.979912415E0
1.950398292E0,2.086751699E0,-1.206841469E0,3.469393253E-1,2.435439566E0
1.958609599E0,2.258164406E0,-1.767083168E0,6.720992327E-1,2.945098773E0
1.966846676E0,2.170593977E0,-2.333264351E0,2.171224117E0,3.856139898E0
1.975057676E0,1.835396409E0,-2.559721470E0,3.262634277E0,4.534935105E0
1.983268138E0,1.373827457E0,-2.259325504E0,2.787355185E0,3.842044058E0
1.991496868E0,7.073056698E-1,-1.871446133E0,1.765460014E0,2.668228064E0
1.999713445E0,-2.616119385E-2,-1.496669769E0,1.007691741E0,1.804479828E0
2.007925291E0,-5.715827942E-1,-1.325567245E0,5.329065323E-1,1.538773793E0
2.016134984E0,-7.903147936E-1,-1.331787109E0,8.165504932E-1,1.750716735E0
2.024345445E0,-7.805849314E-1,-1.401846886E0,1.604836941E0,2.269358749E0
2.032564253E0,-1.002086759E0,-1.582157135E0,2.611767530E0,3.213833957E0
2.040773599E0,-1.410020709E0,-1.715866566E0,3.105597973E0,3.817996234E0
2.048982984E0,-2.018490314E0,-1.809550762E0,3.238894939E0,4.223649789E0
2.057193407E0,-2.055950642E0,-2.044040680E0,1.447099090E0,3.240236275E0
2.065404022E0,-1.831708431E0,-2.280483723E0,-2.137566090E0,3.622837365E0
2.073630099E0,-1.735051990E0,-1.967559338E0,-2.883626461E0,3.898332556E0
2.081846945E0,-4.277635813E-1,-1.936657429E0,-8.128824234E-1,2.143455507E0
2.090055214E0,6.688739061E-1,-2.086277485E0,5.846545696E-1,2.267546474E0
2.098267176E0,1.248176098E0,-2.283037186E0,1.095148087E0,2.823039442E0
2.106478637E0,1.193187714E0,-2.277821064E0,9.797424078E-1,2.751737797E0
2.114699022E0,4.928451777E-1,-2.077219486E0,6.638140678E-1,2.235707110E0
2.122910099E0,-2.792203426E-2,-1.701747417E0,5.338615179E-1,1.783741022E0
2.131120560E0,-2.912366390E-1,-1.193744659E0,5.495541096E-1,1.346051563E0
2.139330060E0,-5.390212536E-1,-4.941568375E-1,5.184412003E-1,8.963906347E-1
2.147539060E0,-2.555779219E-1,2.508449554E-1,4.564210176E-1,5.801408546E-1
2.155765983E0,5.958701372E-1,7.509565353E-1,4.730979204E-1,1.069026932E0
2.163983714E0,1.233943939E0,1.071599960E0,5.690286160E-1,1.730531042E0
2.172193098E0,1.244665623E0,1.371523857E0,6.975175142E-1,1.979090924E0
2.180402137E0,1.059141755E0,1.782265663E0,8.381260633E-1,2.236226162E0
2.188612406E0,7.886370420E-1,2.393922806E0,1.059157252E0,2.733976750E0
2.196830714E0,6.763590574E-1,3.053668022E0,1.851154566E0,3.634435746E0
2.205038791E0,9.530767202E-1,3.709416389E0,3.141102076E0,4.953246151E0
2.213272983E0,1.544446588E0,3.965367317E0,4.986669540E0,6.555633175E0
2.221482329E0,1.303290367E0,3.938138008E0,6.308985233E0,7.550549081E0
2.229692598E0,5.277273655E-1,4.068344116E0,6.004673958E0,7.272278141E0
2.237918752E0,4.387974739E-1,4.300380707E0,4.822011948E0,6.475925931E0
2.246136060E0,5.940431356E-1,4.804682732E0,3.311124325E0,5.865271323E0
2.254344829E0,9.898986816E-1,5.272944450E0,2.269714832E0,5.825413976E0
2.262554213E0,1.252952814E0,5.440945625E0,2.047250509E0,5.946849140E0
2.270763213E0,1.399490118E0,5.070998192E0,2.523667574E0,5.834594525E0
2.278981098E0,1.628899217E0,4.610636711E0,3.033741713E0,5.754552313E0
2.287190598E0,1.598599315E0,4.825547218E0,4.234094620E0,6.615813100E0
2.295401944E0,1.540361524E0,5.449069023E0,7.346891165E-1,5.710064355E0
2.303612829E0,7.193077207E-1,5.411741257E0,-3.655764341E0,6.570308969E0
2.311820367E0,-8.619797230E-2,4.471507072E0,-2.486798286E0,5.117223007E0
2.320046752E0,-1.107554555E0,3.827371597E0,2.828970432E0,4.886565680E0
2.328262290E0,-1.541504025E0,3.697540283E0,5.963025570E0,7.183711628E0
2.336470752E0,-1.322696805E0,3.235856056E0,4.434536934E0,5.646716663E0
2.344678444E0,2.049880028E-1,2.685678482E0,1.712288022E0,3.191679693E0
2.352884405E0,1.241871953E0,2.435465813E0,7.570435107E-2,2.734862121E0
2.361099136E0,1.622563243E0,2.915737152E0,-9.251795411E-1,3.462685634E0
2.369307905E0,1.552413821E0,3.949055672E0,-1.716571927E0,4.577297079E0
2.377516675E0,1.179448009E0,4.993313789E0,-1.932656169E0,5.482649001E0
2.385727405E0,1.073675156E-1,5.994272232E0,-2.027166843E0,6.328683338E0
2.393939444E0,-1.866282344E0,6.717040062E0,-2.528155327E0,7.415740444E0
2.402167636E0,-3.995935917E0,6.755026817E0,-2.595276356E0,8.266398884E0
2.410385790E0,-8.070339203E0,6.142019272E0,-3.850424051E0,1.084806623E1
2.418596021E0,-1.197143555E1,5.389498711E0,-5.426944733E0,1.420611469E1
2.426805482E0,-1.377390671E1,4.659935951E0,-4.668268204E0,1.527181185E1
2.435014290E0,-1.290405273E1,3.223785400E0,-5.222685337E-1,1.331090281E1
2.443233482E0,-7.115503788E0,1.779912949E0,-1.921087146E0,7.582154053E0
2.451444059E0,-3.117062807E0,7.211236954E-1,-2.854014635E0,4.287365096E0
2.459680174E0,-1.375841856E0,2.879810333E-1,-3.243582487E0,3.535067360E0
2.467889097E0,-7.136518955E-1,9.884071350E-2,-3.269858122E0,3.348289213E0
2.476097867E0,-2.752385139E-1,-4.023218155E-1,-3.362839937E0,3.397986393E0
2.484322213E0,-4.031155109E-1,-4.909591675E-1,-3.626871109E0,3.682083250E0
2.492539943E0,-7.660868168E-1,-3.724231720E-1,-3.664991140E0,3.762678313E0
2.500751905E0,-4.733542204E-1,-6.196069717E-1,-3.593698740E0,3.677315278E0
2.508961097E0,6.311602592E-1,-1.529429913E0,-3.515542984E0,3.885429397E0
2.517171059E0,1.833763242E0,-2.884027004E0,-3.811770201E0,5.119559693E0
2.525389212E0,2.124801397E0,-3.955520630E0,-4.523533344E0,6.373639333E0
2.533597482E0,1.635861993E0,-4.724628925E0,-5.388727188E0,7.350955288E0
2.541806520E0,8.730472326E-1,-5.330519676E0,-5.880378246E0,7.984704115E0
2.550015866E0,-3.059625626E-3,-5.679256916E0,-6.333667278E0,8.507015321E0
2.558224097E0,-6.435840130E-1,-5.920026779E0,-6.456192970E0,8.783128436E0
2.566448866E0,-1.107383609E0,-6.092992306E0,-6.084963322E0,8.682029274E0
2.574665828E0,-1.375441909E0,-6.171121120E0,-5.824357033E0,8.596377794E0
2.582878135E0,-1.691932917E0,-6.165174484E0,-5.429127693E0,8.387338131E0
2.591089674E0,-1.962971568E0,-6.084756851E0,-5.070172787E0,8.159912708E0
2.599299866E0,-2.156682253E0,-6.104831219E0,-4.757463932E0,8.034532072E0
2.607517481E0,-2.155515909E0,-6.197628021E0,-4.477142334E0,7.943654411E0
2.615726020E0,-2.026541710E0,-6.423721313E0,-4.390480518E0,8.040359818E0
2.623934097E0,-1.780440569E0,-6.557298660E0,-4.517755508E0,8.159549569E0
2.632143789E0,-1.369088411E0,-6.635457039E0,-4.504197121E0,8.135814950E0
2.640353943E0,-9.689806700E-1,-6.604117393E0,-4.179464817E0,7.875354992E0
2.648581289E0,-7.305006981E-1,-6.388566017E0,-3.917403460E0,7.529505753E0
2.656799866E0,-5.471236706E-1,-6.069644928E0,-3.510499954E0,7.033032333E0
2.665010673E0,-3.964786530E-1,-5.483964920E0,-3.014712811E0,6.270531070E0
2.673221558E0,-2.428828478E-1,-4.628439426E0,-2.390775919E0,5.215098570E0
2.681432481E0,-6.616675854E-2,-3.553378105E0,-1.781155825E0,3.975347792E0
2.689650289E0,2.688277960E-1,-1.862655163E0,-1.788444519E-1,1.890433278E0
2.697859481E0,9.411375523E-1,5.750627518E-1,3.144575596E0,3.332385443E0
2.706095173E0,2.219499350E0,4.164296150E0,9.632854462E0,1.072657564E1
2.714307173E0,3.939708233E0,6.973565102E0,1.556990051E1,1.750924650E1
2.722519366E0,4.415059090E0,7.129323006E0,1.422024918E1,1.650864864E1
2.730762481E0,3.542303324E0,5.070115089E0,7.476837635E0,9.703457161E0
2.738981135E0,1.808629990E0,3.225600243E0,1.968879700E0,4.189525825E0
2.747191404E0,-7.107353210E-2,2.208930969E0,-3.467504978E-1,2.237110498E0
2.755400750E0,-1.249950528E0,1.893056870E0,-6.147813797E-1,2.350318442E0
2.763609442E0,-1.760708809E0,2.013501167E0,5.136272907E-1,2.723618082E0
2.771828019E0,-2.085528612E0,2.464952469E0,2.523060083E0,4.097713076E0
2.780038827E0,-2.100535631E0,3.897564888E0,5.349123955E0,6.943802206E0
2.788247327E0,-2.083035946E0,5.701416016E0,9.659557343E0,1.140842809E1
2.796455788E0,-4.084161758E0,6.999512672E0,1.114192581E1,1.377737514E1
2.804665365E0,-6.651387215E0,8.768939972E0,9.369264603E0,1.445400911E1
2.812892288E0,-9.172974586E0,1.057856560E1,5.646351814E0,1.509737731E1
2.821107788E0,-1.082324886E1,1.029149151E1,2.285449505E0,1.510896399E1
2.829315019E0,-9.378425598E0,5.730956078E0,-2.085533142E0,1.118696441E1
2.837523481E0,-6.439945698E0,4.666461945E-1,-4.643143654E0,7.952951795E0
2.845731557E0,-3.569345713E0,-3.139554024E0,-5.787168503E0,7.489215417E0
2.853948211E0,-2.044596195E0,-4.856730461E0,-6.326251984E0,8.233448156E0
2.862157442E0,-1.012101412E0,-5.909794331E0,-6.141909599E0,8.583301918E0
2.870367173E0,-2.084976435E-1,-6.743137360E0,-5.665719986E0,8.809866950E0
2.878575827E0,6.762143373E-1,-7.277950764E0,-5.166144848E0,8.950691914E0
2.886783403E0,1.716764450E0,-7.332677841E0,-4.593648434E0,8.821397306E0
2.895010596E0,2.640829325E0,-6.933363914E0,-4.172885895E0,8.512255364E0
2.903229711E0,3.111760139E0,-6.226249695E0,-4.391956329E0,8.230341234E0
2.911440519E0,3.044438839E0,-4.921251297E0,-5.100789547E0,7.713972788E0
2.919650403E0,2.603947639E0,-2.968945503E0,-6.843577385E0,7.901248771E0
2.927859903E0,1.220566511E0,-6.248130798E-1,-8.513295174E0,8.623013899E0
2.936078403E0,-1.035115719E0,1.971536636E0,-1.084882545E1,1.107499142E1
2.944287788E0,-3.258374214E0,4.559623718E0,-1.317476845E1,1.431718180E1
2.952522519E0,-4.757744789E0,5.931859970E0,-1.326218510E1,1.528753256E1
2.960731826E0,-4.831048489E0,6.625394821E0,-1.238603973E1,1.485425415E1
2.968942326E0,-3.820490837E0,6.693289757E0,-1.041539192E1,1.295672285E1
2.977168442E0,-2.543123484E0,6.121379852E0,-7.986837864E0,1.037922673E1
2.985386365E0,-2.025954247E0,5.370365143E0,-5.908619881E0,8.237542186E0
2.993596634E0,-1.404261827E0,4.413697243E0,-3.821075916E0,6.004439673E0
3.001806518E0,-1.187856436E0,3.991258621E0,-2.190733671E0,4.705365269E0
3.010017057E0,-1.218655109E0,3.666707039E0,-1.330287218E0,4.086505214E0
3.018241711E0,2.811141014E0,2.394071579E0,2.224352455E1,2.254791514E1
3.026451518E0,1.921653986E0,9.792270660E-1,2.262714958E1,2.272970607E1
3.034661941E0,-5.842256546E-1,9.799613953E-1,1.062077332E1,1.068187576E1
3.042871787E0,-1.996133089E0,2.001822472E0,2.107864380E0,3.526320003E0
3.051082441E0,-2.424647093E0,2.217478752E0,-2.542481422E0,4.154556213E0
3.059308018E0,-1.730555534E0,1.643672943E0,-4.344156265E0,4.956629587E0
3.067525249E0,-6.003484726E-1,4.959812164E-1,-4.519277573E0,4.585878916E0
3.075735287E0,5.138576031E-1,-7.984218597E-1,-4.445477009E0,4.545744487E0
3.083943249E0,1.311722994E0,-1.843531609E0,-4.640493393E0,5.162693574E0
3.092151326E0,1.904984474E0,-2.632787228E0,-4.249585629E0,5.349720782E0
3.100369710E0,2.394183874E0,-3.315425873E0,-3.508427143E0,5.388248895E0
3.108580172E0,2.689537525E0,-3.817602158E0,-3.008257151E0,5.554935591E0
3.116788633E0,2.836920261E0,-4.067704678E0,-2.638455391E0,5.617453584E0
3.124996441E0,2.995337486E0,-4.064857960E0,-2.422175169E0,5.600182983E0
3.133205864E0,3.068232298E0,-3.797611713E0,-2.179462194E0,5.346583920E0
3.141431018E0,3.065288544E0,-3.259568691E0,-1.430451393E0,4.697549691E0
3.149647941E0,1.930647492E0,-2.513582230E0,1.434248328E0,3.478873903E0
3.157858287E0,8.184305429E-1,-1.721013546E0,3.665241718E0,4.131066815E0
3.166068633E0,1.653907299E-1,-1.048470497E0,3.964200735E0,4.103843558E0
3.174278095E0,1.394169331E-1,-6.768302917E-1,2.275041103E0,2.377677091E0
3.182496672E0,9.649583101E-1,-5.004253387E-1,3.683254123E-1,1.147708007E0
3.190705902E0,1.492989421E0,-5.922393799E-1,-7.335333824E-1,1.765739538E0
3.198940787E0,1.310597777E0,-7.178773880E-1,-7.430505753E-1,1.668873463E0
3.207149210E0,6.668944359E-1,-9.824981689E-1,-4.367721081E-2,1.188258616E0
3.215358018E0,9.886348248E-2,-1.238348961E0,7.064688206E-1,1.429118725E0
3.223585094E0,-2.718746662E-1,-1.400795937E0,1.165495276E0,1.842423494E0
3.231801248E0,-5.594745874E-1,-1.397274017E0,1.407548189E0,2.060722785E0
3.240009633E0,-6.887574196E-1,-1.273791313E0,1.735103130E0,2.259980966E0
3.248218056E0,-7.477163076E-1,-1.089585304E0,2.290851831E0,2.644669720E0
3.256424440E0,-1.019368529E0,-9.227504730E-1,2.826196909E0,3.142923735E0
3.264641440E0,-1.112644911E0,-6.163549423E-1,3.134490490E0,3.382735985E0
3.272852248E0,-1.249573112E0,-1.823539734E-1,3.151244640E0,3.394853269E0
3.281061633E0,-1.226261735E0,3.482875824E-1,2.944165945E0,3.208291632E0
3.289272863E0,-8.462873697E-1,9.601030350E-1,2.472672462E0,2.784260989E0
3.297481940E0,-1.636146307E-1,1.539664268E0,1.950094700E0,2.490021113E0
3.305709248E0,9.265648127E-1,1.918905258E0,1.588103890E0,2.657591712E0
3.313925786E0,1.245930672E0,1.950039864E0,1.302030683E0,2.655236827E0
3.322136709E0,1.011067152E0,2.048698425E0,1.149010420E0,2.557273346E0
3.330347094E0,8.555301428E-1,2.425824165E0,1.277734518E0,2.872135130E0
3.338557632E0,1.034246922E0,2.920425415E0,1.916533351E0,3.643027777E0
3.346790248E0,1.420683265E0,3.449522018E0,3.092850924E0,4.845953975E0
3.354999325E0,2.018860817E0,3.889834404E0,4.275036335E0,6.122299107E0
3.363209786E0,2.453556061E0,4.318218231E0,4.660979271E0,6.811143355E0
3.371420978E0,2.592043638E0,4.551188469E0,3.554873943E0,6.330018598E0
3.379629978E0,2.511234999E0,4.956564903E0,2.122162819E0,5.947891382E0
3.387853825E0,2.280097246E0,5.705939293E0,1.484581113E0,6.321437158E0
3.396069901E0,2.415615797E0,6.315591812E0,2.260419846E0,7.129614120E0
3.404278863E0,3.324772596E0,6.654100418E0,4.184805870E0,8.534855907E0
3.412486863E0,4.028637409E0,6.640323639E0,5.158428192E0,9.323797446E0
3.420695132E0,3.949374676E0,7.173424721E0,5.190447807E0,9.695170498E0
3.428912478E0,3.040563107E0,8.262439728E0,3.835954666E-1,8.812495659E0
3.437120786E0,2.644885302E0,8.002548218E0,-3.090239286E0,8.976958008E0
3.445355324E0,2.466304064E0,6.137976646E0,-1.359860897E-1,6.616336242E0
3.453561863E0,1.525259256E0,4.808484077E0,3.487771988E0,6.132902116E0
3.461768786E0,2.247366905E-1,4.132182121E0,4.526716709E0,6.133237304E0
3.469994670E0,-2.867133617E-1,3.632461548E0,3.155510664E0,4.820189726E0
3.478212401E0,5.363721848E-1,2.857804298E0,1.160759926E0,3.130831221E0
3.486421363E0,1.490955830E0,2.450633049E0,1.059188768E-1,2.870500032E0
3.494630286E0,1.769293189E0,2.477640152E0,-6.382447481E-1,3.110700158E0
3.502838209E0,1.474395394E0,3.008035660E0,-1.525358438E0,3.680874716E0
3.511054478E0,6.671010852E-1,3.588756561E0,-1.648621798E0,4.005265453E0
3.519261709E0,-1.834146976E-1,4.350756645E0,-1.654647589E0,4.658388453E0
3.527468863E0,-1.273806214E0,5.415329933E0,-1.308490872E0,5.714939100E0
3.535676516E0,-3.467584610E0,5.793637276E0,-1.515264392E0,6.920000151E0
3.543884593E0,-7.962491035E0,6.209116936E0,-2.948396206E0,1.051890854E1
3.552107709E0,-1.437559509E1,7.363296509E0,-4.897412300E0,1.687781138E1
3.560323439E0,-1.823292160E1,7.512552261E0,-2.320105314E0,1.985600061E1
3.568531401E0,-1.362972164E1,5.933788300E0,-1.089825392E0,1.490526333E1
3.576740439E0,-8.069824219E0,3.188121796E0,-2.642695427E0,9.070282389E0
3.584949824E0,-3.985698223E0,1.414054871E0,-4.154371262E0,5.928249496E0
3.593168208E0,-1.749425530E0,7.717943192E-1,-4.293807030E0,4.700312220E0
3.601377208E0,-1.014293671E0,7.590007782E-1,-4.022555828E0,4.217324889E0
3.609585285E0,-1.317680120E0,1.107897758E0,-4.313093185E0,4.643973640E0
3.617793016E0,-1.554601789E0,1.469043732E0,-4.155846596E0,4.673963750E0
3.626001208E0,-7.874493599E-1,9.816532135E-1,-4.201164722E0,4.385601960E0
3.634226401E0,5.164259672E-1,-2.212734222E-1,-4.918572426E0,4.950556778E0
3.642444554E0,1.938291550E0,-1.940701962E0,-5.490038872E0,6.137086039E0
3.650653016E0,2.729588032E0,-3.409832001E0,-5.940729618E0,7.373592984E0
3.658860208E0,2.890431404E0,-4.707207680E0,-6.121797562E0,8.245532319E0
3.667068285E0,2.328279018E0,-5.634888649E0,-6.769567490E0,9.110427941E0
3.675284362E0,1.625172496E0,-6.240067482E0,-7.061643124E0,9.562762751E0
3.683491593E0,1.054920912E0,-6.619982719E0,-7.020477295E0,9.706911496E0
3.691725554E0,4.639329910E-1,-6.926022530E0,-6.653963089E0,9.615625133E0
3.699935246E0,-1.276329756E-1,-7.062663555E0,-6.295970917E0,9.462386404E0
3.708143708E0,-6.494850516E-1,-7.110424519E0,-5.760366440E0,9.173973468E0
3.716367708E0,-1.333582640E0,-6.930517197E0,-5.469712257E0,8.929068454E0
3.724583593E0,-2.118492842E0,-6.674168110E0,-5.338555336E0,8.805265752E0
3.732792169E0,-2.770672798E0,-6.511446953E0,-5.485707283E0,8.953689383E0
3.740999708E0,-3.312980413E0,-6.449347973E0,-5.658355713E0,9.197114649E0
3.749207362E0,-3.573485613E0,-6.530148506E0,-5.496625423E0,9.253406399E0
3.757425400E0,-3.396407604E0,-6.671611786E0,-5.373255253E0,9.215088738E0
3.765633900E0,-2.908812046E0,-7.000122070E0,-5.061721802E0,9.115038350E0
3.773841439E0,-2.291300774E0,-7.240421295E0,-4.829741955E0,9.000009284E0
3.782050592E0,-1.506471634E0,-7.492777348E0,-4.415942669E0,8.826761514E0
3.790260362E0,-9.423056841E-1,-7.543503761E0,-3.923380852E0,8.554841104E0
3.798484631E0,-7.358058095E-1,-7.522308350E0,-3.326584339E0,8.257886925E0
3.806701938E0,-5.073785186E-1,-7.450584412E0,-2.857564926E0,7.995893843E0
3.814910631E0,-3.683551550E-1,-7.271511078E0,-2.451999426E0,7.682633667E0
3.823119131E0,-3.284820318E-1,-6.758425713E0,-1.814615011E0,7.005501138E0
3.831327977E0,-4.233670235E-2,-5.295114040E0,-2.407541275E-1,5.300753498E0
3.839546900E0,-4.206717014E-2,-5.410385132E-1,2.050590992E0,2.121182627E0
3.847756323E0,4.123827815E-1,6.668243408E0,9.636476517E0,1.172592041E1
3.855966592E0,1.549983144E0,1.199489307E1,1.832730293E1,2.195836835E1
3.864178438E0,1.943115354E0,1.352993679E1,1.618871689E1,2.118748313E1
3.872387823E0,6.990811825E-1,1.336884212E1,8.368362427E0,1.578746794E1
3.880631053E0,5.026754141E-1,1.234225178E1,2.804815054E0,1.266691948E1
3.888848015E0,1.795909286E0,9.795910835E0,-1.303095818E-1,9.960027100E0
3.897058169E0,3.895903587E0,6.079904556E0,-7.660863400E-1,7.261555788E0
3.905267438E0,4.833720207E0,3.324326515E0,-4.252204895E-1,5.881905328E0
3.913476092E0,4.154915333E0,7.736892700E-1,-3.574841022E-1,4.241427990E0
3.921693515E0,2.661080599E0,-1.132725239E0,-5.802392960E-3,2.892135904E0
3.929902284E0,7.290449142E-1,-2.355579853E0,-2.811272144E-1,2.481792788E0
3.938138361E0,-9.880179167E-1,-3.015096188E0,-1.204751253E0,3.393878313E0
3.946350322E0,-1.753556848E0,-3.032296181E0,-2.160791397E0,4.115677491E0
3.954562246E0,-1.888533235E0,-2.263539791E0,-2.429037571E0,3.819737384E0
3.962790592E0,-1.772183537E0,-6.203393936E-1,-2.091006756E0,2.810296196E0
3.971008284E0,-2.544492245E0,1.672619820E0,-5.786366463E-1,3.099502898E0
3.979217784E0,-4.902606010E0,4.683061600E0,2.820994139E0,7.343338449E0
3.987427592E0,-9.996192932E0,1.433148766E1,1.936806679E1,2.608519547E1
3.995637053E0,-8.549216270E0,1.878723145E1,1.463739395E1,2.530419858E1
4.003854784E0,-5.894740582E0,1.414037514E1,9.936277866E-1,1.535205106E1
4.012065130E0,-6.188691139E0,7.116766930E0,-9.515090942E0,1.339720960E1
4.020274630E0,-5.261777401E0,2.320323944E0,-1.205864620E1,1.335968386E1
4.028481361E0,-2.993489742E0,-1.170527458E0,-1.041221523E1,1.089703361E1
4.036687091E0,-1.742509246E0,-2.927085876E0,-7.677791119E0,8.399562290E0
4.044912707E0,-7.642709017E-1,-4.078429699E0,-5.773327827E0,7.109782910E0
4.053126707E0,-4.224658012E-3,-4.869161606E0,-4.565087795E0,6.674487184E0
4.061333053E0,6.990046501E-1,-5.385230064E0,-3.981557846E0,6.733655265E0
4.069539476E0,1.153884530E0,-5.546014786E0,-4.066798687E0,6.973419611E0
4.077745745E0,1.388624072E0,-5.324323654E0,-4.437591076E0,7.068869340E0
4.085961207E0,1.437093854E0,-4.617220402E0,-5.180808067E0,7.086941175E0
4.094166591E0,1.348479033E0,-3.508260727E0,-6.325551987E0,7.357913900E0
4.102372091E0,1.317942500E0,-2.142046452E0,-7.355278015E0,7.773380868E0
4.110575937E0,1.057539940E0,-7.423305511E-1,-8.316661835E0,8.416430921E0
4.118781283E0,4.694390297E-1,3.318223953E-1,-8.976583481E0,8.994972490E0
4.127003168E0,-4.141137600E-1,1.563275337E0,-9.736143112E0,9.869539132E0
4.135216437E0,-1.950091600E0,2.427482605E0,-9.560239792E0,1.005453698E1
4.143424206E0,-2.956227779E0,2.559705734E0,-7.891148567E0,8.806906485E0
4.151630168E0,-2.893425941E0,2.014199257E0,-5.981290817E0,6.942964220E0
4.159835822E0,-2.550412178E0,1.244639397E0,-4.402961731E0,5.238301395E0
4.168050668E0,-2.054822922E0,8.405017853E-1,-3.211694479E0,3.904320929E0
4.176256475E0,-1.510604382E0,8.529138565E-1,-2.194766998E0,2.797568555E0
4.184489206E0,-8.213369846E-1,9.522771835E-1,-1.407075167E0,1.887137197E0
4.192694975E0,-3.097999096E-1,9.043769836E-1,-1.004016280E0,1.386334160E0
4.200901668E0,5.708932877E-2,8.661193848E-1,-9.474805593E-1,1.284967467E0
4.209124514E0,3.284339905E-1,8.967018127E-1,-7.508745193E-1,1.214806804E0
4.217338129E0,5.232462883E-1,8.879575729E-1,-3.080728054E-1,1.075715661E0
4.225544206E0,5.270345211E-1,8.177061081E-1,3.105771542E-1,1.021208517E0
4.233750706E0,6.180248260E-1,6.594305038E-1,7.373025417E-1,1.166369715E0
4.241957629E0,1.073612213E0,2.146682739E-1,1.027263641E0,1.501331489E0
4.250173667E0,1.607141733E0,-3.454065323E-1,1.235727906E0,2.056510073E0
4.258382360E0,2.154351711E0,-1.119674683E0,2.035509109E0,3.168311857E0
4.266588667E0,2.187370539E0,-2.120470047E0,3.803832769E0,4.873410185E0
4.274795014E0,2.152151346E0,-2.722860813E0,4.904917717E0,6.008655776E0
4.283001590E0,1.973198652E0,-2.664433479E0,3.777378559E0,5.026062820E0
4.291224975E0,1.668899059E0,-2.276453972E0,1.886300802E0,3.394937035E0
4.299439821E0,1.151048064E0,-1.928024292E0,2.470566332E-1,2.259032159E0
4.307645013E0,6.820385456E-1,-1.303849220E0,-1.470126033E0,2.080016807E0
4.315850244E0,4.624085426E-1,-6.800546646E-1,-2.252411842E0,2.397843847E0
4.324055783E0,7.120736837E-1,-2.208366394E-1,-2.657968044E0,2.760545576E0
4.332270359E0,1.283759356E0,3.017311096E-1,-2.754764557E0,3.054145954E0
4.340474859E0,1.595276356E0,5.875787735E-1,-2.106992722E0,2.707318562E0
4.348679552E0,1.681619525E0,6.253442764E-1,1.834805489E0,2.566205540E0
4.356884359E0,6.624814272E-1,4.622859955E-1,6.635119915E0,6.684115968E0
4.365089244E0,-6.048789024E-1,1.045856476E-1,7.745168686E0,7.769456520E0
4.373310436E0,-1.536835432E0,-2.875690460E-1,6.143550396E0,6.339382507E0
4.381524167E0,-1.407992601E0,-6.033020020E-1,2.275412798E0,2.742976462E0
4.389730205E0,-9.497001171E-1,-5.601844788E-1,-9.784440994E-1,1.474140366E0
4.397936513E0,1.988466978E-1,-1.468057632E-1,-1.682894707E0,1.700948716E0
4.406142513E0,1.213246346E0,1.114845276E-2,-8.602063656E-1,1.487294851E0
4.414357051E0,1.786680579E0,-8.216190338E-2,1.724004745E-2,1.788651808E0
4.422565128E0,1.760706544E0,-3.127641678E-1,5.901660919E-1,1.883137004E0
4.430799821E0,1.605957985E0,-4.937620163E-1,1.004096866E0,1.957322787E0
4.439005744E0,1.230278015E0,-6.047697067E-1,1.207673669E0,1.826966361E0
4.447213051E0,8.636721373E-1,-6.935453415E-1,1.292087555E0,1.701888642E0
4.455436128E0,6.429790258E-1,-5.596866608E-1,1.254094720E0,1.516385423E0
4.463650320E0,6.770218611E-1,-2.712144852E-1,1.251515746E0,1.448519092E0
4.471855551E0,1.098285437E0,2.060699463E-2,1.346592426E0,1.737805142E0
4.480060128E0,1.432239413E0,3.923759460E-1,1.240511537E0,1.934977388E0
4.488265205E0,1.525073528E0,9.209594727E-1,1.064096451E0,2.075166710E0
4.496479667E0,1.400813103E0,1.564749718E0,9.355868101E-1,2.299139341E0
4.504684628E0,1.179144740E0,2.214959145E0,9.009264708E-1,2.666101055E0
4.512890436E0,1.033372521E0,2.715343475E0,1.131560683E0,3.117912529E0
4.521096089E0,9.695733786E-1,3.036657333E0,1.552399516E0,3.545603553E0
4.529302205E0,1.169141412E0,3.162092209E0,2.190219879E0,4.020296245E0
4.537525359E0,1.371209979E0,3.089811325E0,2.666439772E0,4.305467673E0
4.545739512E0,1.742246389E0,2.897257805E0,2.927927494E0,4.472391383E0
4.553946897E0,1.993479609E0,2.707715988E0,2.935223341E0,4.463319716E0
4.562154628E0,2.315172672E0,2.715820312E0,2.766485453E0,4.515434224E0
4.570362743E0,2.590775490E0,2.816926956E0,2.323238373E0,4.477123145E0
4.578598628E0,2.795492649E0,3.151655197E0,1.524480462E0,4.480150702E0
4.586807589E0,3.192385197E0,3.573139191E0,7.595908642E-1,4.851352925E0
4.595018935E0,3.437905788E0,4.159312248E0,2.296638489E-2,5.396258152E0
4.603229589E0,3.650022507E0,4.801369667E0,-8.459563255E-1,6.090275616E0
4.611438320E0,3.757067680E0,5.471757889E0,-1.869108677E0,6.895597088E0
4.619662512E0,4.034715652E0,5.847977638E0,-2.642930984E0,7.580425914E0
4.627877435E0,3.801419735E0,6.530117989E0,-2.426466703E0,7.936055293E0
4.636084358E0,2.253414154E0,7.759920120E0,2.396514177E0,8.428375634E0
4.644290281E0,-1.326440692E0,7.638798714E0,4.668874264E0,9.050363395E0
4.652496781E0,-4.018072128E0,5.484516144E0,4.910264015E0,8.386627073E0
4.660714243E0,-3.239613533E0,3.810006142E0,4.395247459E0,6.658035962E0
4.668923743E0,-8.521829844E-1,2.482182503E0,3.431625128E0,4.320126946E0
4.677158050E0,1.703561306E0,1.601572037E0,2.415040970E0,3.361484344E0
4.685366320E0,2.926286221E0,1.415464401E0,1.634116292E0,3.638272471E0
4.693576050E0,2.836463213E0,1.876442909E0,9.313303828E-1,3.526178928E0
4.701802512E0,1.674428701E0,2.314881325E0,2.311164737E-1,2.866322007E0
4.710018666E0,-3.566696644E-1,2.796358109E0,-5.635755062E-1,2.874795518E0
4.718226396E0,-2.659379959E0,3.867462158E0,-1.894565821E0,5.061516073E0
4.726433319E0,-4.998790741E0,4.795542717E0,-2.111999750E0,7.241939089E0
4.734641012E0,-9.370532036E0,6.234983444E0,-3.036592007E0,1.165773478E1
4.742858204E0,-1.475977707E1,7.782578468E0,-4.771792889E0,1.735481357E1
4.751067089E0,-1.697117805E1,8.571505547E0,-4.282507896E0,1.948926540E1
4.759277512E0,-1.275769424E1,7.084153175E0,-3.153669357E0,1.492948824E1
4.767487012E0,-6.398446560E0,4.622124672E0,-4.186497688E0,8.934814926E0
4.775695165E0,-2.881430149E0,2.640778542E0,-4.930193901E0,6.291515152E0
4.783920358E0,-8.561675549E-1,1.265159607E0,-5.019081116E0,5.246410865E0
4.792136435E0,-1.687359810E-1,7.407932281E-1,-5.207539558E0,5.262671821E0
4.800346896E0,-4.135006666E-1,3.377485275E-1,-4.863160133E0,4.892380132E0
4.808557896E0,-7.361292839E-1,6.003665924E-2,-4.015055656E0,4.082421175E0
4.816768319E0,-2.973048687E-1,-4.924945831E-1,-3.598363638E0,3.644058448E0
4.824987665E0,2.753293514E-1,-1.402284622E0,-3.867994547E0,4.123540982E0
4.833197127E0,4.892711639E-1,-2.318150520E0,-4.485525131E0,5.072784621E0
4.841407088E0,4.615381956E-1,-2.848622799E0,-5.060656548E0,5.825625636E0
4.849616127E0,5.365469456E-1,-3.241500378E0,-5.696711540E0,6.576300609E0
4.857824934E0,6.295804381E-1,-3.591097355E0,-5.633997917E0,6.710758845E0
4.866051588E0,9.070842266E-1,-3.872066975E0,-5.077842236E0,6.449820635E0
4.874269896E0,7.239286304E-1,-3.611379147E0,-5.633636475E0,6.730824016E0
4.882479588E0,8.858779669E-1,-3.563961506E0,-5.585713387E0,6.684818279E0
4.890688934E0,9.387872219E-1,-3.815060139E0,-5.285124779E0,6.585480183E0
4.898897819E0,4.868400693E-1,-4.273039818E0,-5.317389011E0,6.838896727E0
4.907116934E0,-3.307274580E-1,-4.382672310E0,-5.332606792E0,6.910419121E0
4.915325973E0,-1.145435572E0,-4.293974400E0,-5.430812359E0,7.017404197E0
4.923559473E0,-1.840258002E0,-4.250774860E0,-5.795798779E0,7.419361152E0
4.931768396E0,-2.219540358E0,-4.246706009E0,-6.064765453E0,7.729311181E0
4.939978819E0,-2.344880819E0,-4.453841686E0,-6.257192612E0,8.030419118E0
4.948204357E0,-2.177836657E0,-4.892758369E0,-6.147555351E0,8.153189177E0
4.956421588E0,-1.762725234E0,-5.406295776E0,-6.059226513E0,8.309600484E0
4.964632242E0,-1.236932993E0,-6.036462307E0,-5.665464401E0,8.370565530E0
4.972842049E0,-7.885282040E-1,-6.526847839E0,-5.012032986E0,8.266921682E0
4.981051165E0,-1.240188479E-1,-6.976409912E0,-4.229001999E0,8.159052264E0
4.989269049E0,3.494341969E-1,-7.249831200E0,-3.658994913E0,8.128370098E0
4.997477665E0,7.069877386E-1,-7.352247715E0,-3.272120953E0,8.078499468E0
5.005688088E0,1.042248964E0,-7.165992737E0,-2.811725616E0,7.768110179E0
5.013898357E0,1.412161350E0,-6.355324745E0,-2.076418161E0,6.833437252E0
5.022108203E0,1.390617132E0,-4.997828484E0,-1.473207235E0,5.392814211E0
5.030335203E0,1.111547351E0,-2.832736015E0,-1.180507421E0,3.263974359E0
5.038553241E0,1.205465913E0,4.730701447E-2,2.769436836E-1,1.237773737E0
5.046765049E0,1.464225054E0,3.473927498E0,3.594026566E0,5.208565467E0
5.054974818E0,1.546970248E0,6.961679459E0,7.350802422E0,1.024169879E1
5.063186049E0,8.725500107E-1,9.467762947E0,7.848797798E0,1.232897018E1
5.071406934E0,1.328558922E-1,1.045024014E1,6.778121948E0,1.245664910E1
5.079616049E0,-2.342438698E-2,9.854817390E0,4.593709469E0,1.087290859E1
5.087826472E0,1.011406064E0,7.865683556E0,2.992846012E0,8.476381733E0
5.096035241E0,2.378654480E0,4.889987946E0,1.850621700E0,5.744108279E0
5.104243357E0,2.978600502E0,2.546315193E0,1.364811420E0,4.149517108E0
5.112466780E0,2.865639210E0,4.737033844E-1,1.003823757E0,3.073100244E0
5.120683241E0,1.841855407E0,-9.173903465E-1,9.335842133E-1,2.259560991E0
5.128891433E0,6.403875351E-1,-1.719865799E0,9.239063263E-1,2.054662372E0
5.137100164E0,-3.805202246E-1,-2.264029980E0,9.859647751E-1,2.498550365E0
5.145307933E0,-1.030966520E0,-2.860779762E0,1.168493271E0,3.257657032E0
5.153525818E0,-1.095860958E0,-3.400915623E0,1.065844059E0,3.728694392E0
5.161734433E0,-8.690131903E-1,-3.589680672E0,8.322262764E-1,3.785973035E0
5.169968664E0,-1.395419836E-1,-3.338027000E0,4.995439053E-1,3.378082346E0
5.178177125E0,3.261482716E-1,-2.731414795E0,1.399264336E-1,2.754374500E0
5.186383895E0,4.079959393E-1,-1.589393616E0,-1.391251087E-1,1.646811631E0
5.194609779E0,-2.534011602E-1,2.110977173E-1,-3.395125866E-1,4.733320090E-1
5.202824202E0,-2.073741913E0,3.041970253E0,-8.359062672E-1,3.775278510E0
5.211031010E0,-5.078952789E0,6.739214897E0,-2.327115774E0,8.753756148E0
5.219238164E0,-7.987145901E0,9.917247772E0,-2.877419949E0,1.305472514E1
5.227443741E0,-9.527097702E0,1.461783695E1,3.812515974E0,1.786006791E1
5.235658125E0,-8.442714691E0,1.531316853E1,6.472271919E0,1.864571976E1
5.243865471E0,-3.097106934E0,1.055125809E1,5.435728073E0,1.226655038E1
5.252074394E0,-1.454236388E0,5.479770660E0,-2.884556293E0,6.361081274E0
5.260281702E0,-1.933289289E0,1.973718643E0,-8.212043762E0,8.664342763E0
5.268488933E0,-1.469116092E0,-4.142694473E-1,-7.218214035E0,7.377840817E0
5.276714240E0,-9.330120087E-1,-1.945759296E0,-4.843688965E0,5.302623260E0
5.284929317E0,-4.554301500E-1,-3.230716705E0,-3.385200739E0,4.701545607E0
5.293138048E0,-5.402004719E-2,-4.278065205E0,-2.650352478E0,5.032805214E0
5.301345163E0,3.875175714E-1,-5.096179485E0,-2.356521368E0,5.628002148E0
5.309550586E0,7.276949883E-1,-5.650646210E0,-2.385862112E0,6.176704672E0
5.317765740E0,9.147674441E-1,-5.882971287E0,-2.638213634E0,6.512013653E0
5.325972740E0,9.142608643E-1,-5.767990112E0,-2.989999294E0,6.560920564E0
5.334180702E0,8.322309256E-1,-5.264332771E0,-3.822491646E0,6.558753710E0
5.342389163E0,6.417542696E-1,-4.133664131E0,-4.831630707E0,6.390906272E0
5.350597163E0,-2.018976212E-1,-2.326994419E0,-6.029525757E0,6.466130723E0
5.358823779E0,-1.555427313E0,-2.394723892E-1,-7.145023346E0,7.316287294E0
5.367039125E0,-2.142305851E0,1.844768524E0,-8.005323410E0,8.489867382E0
5.375247355E0,-2.442766428E0,3.308137894E0,-7.529974461E0,8.579708592E0
5.383457048E0,-2.609930277E0,3.853015900E0,-6.074656487E0,7.652379957E0
5.391665740E0,-2.611933231E0,3.440146446E0,-4.508680820E0,6.243797364E0
5.399882509E0,-2.885706663E0,2.527254105E0,-2.715726137E0,4.699945181E0
5.408090278E0,-3.185958385E0,1.909977913E0,-2.558700562E0,4.510575908E0
5.416323278E0,-2.575312138E0,1.326371193E0,-2.178281307E0,3.624417553E0
5.424531009E0,-1.493328571E0,7.548818588E-1,-1.728930950E0,2.406050513E0
5.432739509E0,-5.498671532E-1,3.582162857E-1,-1.336285472E0,1.488734918E0
5.440965163E0,2.026224136E-2,-3.304862976E-2,-1.116078496E0,1.116751530E0
5.449179047E0,3.558773994E-1,-3.844804764E-1,-8.269717693E-1,9.789567240E-1
5.457384509E0,5.786744356E-1,-7.322406769E-1,-4.504287243E-1,1.036304273E0
5.465590124E0,8.363171816E-1,-1.000625610E0,2.176616192E-1,1.322140167E0
5.473798201E0,1.173449993E0,-1.321802616E0,3.146820068E-1,1.795319417E0
5.482014432E0,1.467805028E0,-1.681098938E0,8.728957176E-2,2.233419958E0
5.490223009E0,1.514897585E0,-1.910293579E0,-4.796720743E-1,2.484798090E0
5.498430663E0,1.561395645E0,-1.963381767E0,-7.085210085E-1,2.606688770E0
5.506639163E0,1.557776332E0,-1.834289551E0,-9.969394803E-1,2.604836575E0
5.514848393E0,1.520034552E0,-1.503846169E0,-1.194578052E0,2.449300933E0
5.523074316E0,1.414481521E0,-1.152957916E0,-1.349201679E0,2.269452599E0
5.531289316E0,1.421450615E0,-8.136596680E-1,-1.574033976E0,2.271595664E0
5.539495701E0,1.350422740E0,-5.784568787E-1,-1.796770930E0,2.320913551E0
5.547703047E0,1.429996848E0,-3.633918762E-1,-1.778751612E0,2.311039147E0
5.555910047E0,1.454053164E0,-2.015562057E-1,-1.743691921E0,2.279332583E0
5.564126816E0,1.471614838E0,-1.195020676E-1,-1.498328924E0,2.103549510E0
5.572335162E0,1.495116711E0,1.167297363E-2,-1.208484054E0,1.922483796E0
5.580542009E0,1.587889075E0,2.885437012E-2,-8.128200769E-1,1.784068599E0
5.588749278E0,1.668548465E0,2.258205414E-2,-1.877373457E-1,1.679228763E0
5.596956547E0,9.509811997E-1,1.292018890E-1,8.820853233E0,8.872908775E0
5.605180932E0,2.579095364E-1,-2.144527435E-1,1.459992027E1,1.460377278E1
5.613397431E0,-3.416872025E-2,-7.967147827E-1,9.576814651E0,9.609958419E0
5.621605201E0,7.521288395E-1,-9.022769928E-1,4.049808025E0,4.216722258E0
5.629813662E0,8.418009281E-1,-5.026597977E-1,3.421350002E0,3.559063292E0
5.638021931E0,6.954428554E-1,-1.173601151E-1,-3.132962704E0,3.211365670E0
5.646239124E0,-8.744214773E-1,-1.442899704E-1,-5.142425537E0,5.218234656E0
5.654446777E0,-1.078347921E0,-1.131715775E-1,-2.074876308E0,2.341100968E0
5.662717854E0,1.463201046E-1,4.265213013E-2,1.161782861E0,1.171737254E0
5.670926277E0,1.317550898E0,-2.326536179E-1,1.910647869E0,2.332518672E0
5.679134700E0,2.331566095E0,-2.967090607E-1,1.285659552E0,2.679021688E0
5.687379431E0,2.294581890E0,-2.078990936E-1,4.169167280E-1,2.341398651E0
5.695596354E0,1.876200795E0,2.268819809E-1,1.493786573E-1,1.895763392E0
5.703805739E0,1.687204361E0,6.635932922E-1,4.960761070E-1,1.879655851E0
5.712014162E0,1.631643414E0,1.056021690E0,8.196505308E-1,2.109329049E0
5.720223046E0,1.504976392E0,1.451748848E0,1.096776962E0,2.361238735E0
5.728440931E0,1.427339315E0,1.827273369E0,1.536327004E0,2.781461154E0
5.736648431E0,1.623124123E0,2.207116127E0,1.750857592E0,3.251368300E0
5.744855854E0,1.941606998E0,2.572396278E0,2.092383862E0,3.842542202E0
5.753062969E0,2.394861221E0,2.847153664E0,2.184003592E0,4.314106621E0
5.761270931E0,3.049245834E0,3.039497375E0,2.040665865E0,4.764531627E0
5.769494392E0,3.626791477E0,3.135935783E0,1.767284393E0,5.109892737E0
5.777710354E0,4.102174282E0,3.176374435E0,8.799164891E-1,5.262265807E0
5.785919585E0,4.291549683E0,2.856926918E0,-5.763719082E-1,5.187642496E0
5.794126854E0,4.249002934E0,2.484428406E0,-1.280938268E0,5.085982037E0
5.802336238E0,3.748922825E0,2.466821671E0,-1.205493450E0,4.646810299E0
5.810555815E0,3.319086075E0,3.095380783E0,-1.015854597E0,4.650771455E0
5.818766008E0,2.968379259E0,4.132413864E0,-8.032598495E-1,5.151052917E0
5.826975661E0,9.207525849E-1,6.096792221E0,7.970788956E0,1.007730804E1
5.835185008E0,1.352940798E0,7.992295265E0,1.419281673E1,1.634451832E1
5.843392892E0,4.151289940E0,9.521584511E0,1.622477293E0,1.051314474E1
5.851619507E0,3.926157713E0,8.249976158E0,-3.911509037E0,9.938647994E0
5.859835507E0,2.244522333E0,5.896866798E0,1.040804386E0,6.394856708E0
5.868044546E0,-1.686906815E-2,5.069952011E0,4.750183105E0,6.947585012E0
5.876251084E0,-2.046893120E0,4.695490837E0,5.516058922E0,7.527570104E0
5.884458161E0,-2.486925125E0,4.183670044E0,4.255090714E0,6.464803833E0
5.892674546E0,-1.980465531E0,3.647777557E0,1.575673461E0,4.439737795E0
5.900882661E0,-6.180688143E-1,2.682402611E0,-2.480480075E-1,2.763841645E0
5.909115469E0,7.174918652E-1,2.024045944E0,-9.525143504E-1,2.349221179E0
5.917322507E0,1.945446730E0,2.155590057E0,-1.065198421E0,3.092891713E0
5.925529623E0,2.300737619E0,3.205665588E0,-1.032398939E0,4.078668046E0
5.933752084E0,1.331139326E0,4.890703201E0,-9.261612892E-1,5.152541552E0
5.941967238E0,-8.962669373E-1,7.483386040E0,-1.283173680E0,7.645318550E0
5.950175546E0,-4.751010895E0,1.049878883E1,-1.318363428E0,1.159891174E1
5.958382661E0,-7.967766285E0,1.099934101E1,-3.564137220E-1,1.358667851E1
5.966589699E0,-1.204101276E1,1.015671062E1,6.488099098E-1,1.576596693E1
5.974805969E0,-1.437415791E1,8.850449562E0,-1.857740879E0,1.698228707E1
5.983012392E0,-1.329537010E1,7.279006004E0,-4.419038296E0,1.578856213E1
5.991217661E0,-1.007191467E1,4.500955582E0,-5.739076614E0,1.243539572E1
5.999425084E0,-5.536149979E0,2.757792473E0,-6.466971397E0,8.948524737E0
6.007634392E0,-3.299449444E0,1.937945366E0,-7.633955956E0,8.539278799E0
6.015858199E0,-1.565366387E0,1.220341682E0,-8.223642349E0,8.459781276E0
6.024074161E0,8.549571037E-2,3.264751434E-1,-8.361447334E0,8.368255318E0
6.032280199E0,1.667866111E-1,2.994413376E-1,-8.644084930E0,8.650877827E0
6.040487430E0,3.944821358E-1,-2.545289993E-1,-8.456838608E0,8.469859527E0
6.048694584E0,9.247925878E-1,-1.299604416E0,-8.200360298E0,8.354048239E0
6.056911353E0,1.484369040E0,-2.506302357E0,-8.495624542E0,8.981121273E0
6.065118661E0,1.736139297E0,-3.721981525E0,-8.228378296E0,9.196387090E0
6.073327968E0,1.985503435E0,-5.000171661E0,-7.489760399E0,9.221737980E0
6.081537622E0,2.302946568E0,-5.935136795E0,-6.857423782E0,9.357011948E0
6.089746430E0,2.335767269E0,-6.577429295E0,-6.285026550E0,9.392547237E0
6.097975237E0,2.122733355E0,-7.187353134E0,-5.941507339E0,9.563762410E0
6.106193276E0,1.823084831E0,-7.607841492E0,-5.663148403E0,9.657853814E0
6.114402853E0,1.786491752E0,-7.942503452E0,-5.102622986E0,9.607896503E0
6.122612199E0,1.581405640E0,-8.191884995E0,-4.584449768E0,9.519716552E0
6.130821699E0,1.253390908E0,-8.274888039E0,-4.562304974E0,9.532019067E0
6.139039968E0,7.263532281E-1,-8.217409134E0,-4.666347980E0,9.477774283E0
6.147249391E0,2.241337448E-1,-8.019206047E0,-5.028824806E0,9.468208938E0
6.155483622E0,-2.023261338E-1,-7.845672607E0,-5.351079941E0,9.498924732E0
6.163691737E0,-4.413768649E-1,-7.551757336E0,-5.872524738E0,9.576554662E0
6.171898506E0,-6.261231899E-1,-7.228418827E0,-6.333181381E0,9.630745319E0
6.180120583E0,-7.483379841E-1,-7.060710907E0,-6.407052040E0,9.563679422E0
6.188332468E0,-8.169274926E-1,-7.046947002E0,-6.084002972E0,9.345690169E0
6.196539352E0,-9.028469324E-1,-7.185946465E0,-5.542201519E0,9.119701577E0
6.204745852E0,-9.022337794E-1,-7.372343540E0,-5.056085587E0,8.984958349E0
6.212954006E0,-9.144734144E-1,-7.523811340E0,-4.472726822E0,8.800527480E0
6.221170737E0,-7.743462324E-1,-7.606986523E0,-3.788059473E0,8.533185256E0
6.229379006E0,-5.148167610E-1,-7.571503639E0,-3.370919228E0,8.303962915E0
6.237586544E0,-1.874134988E-1,-7.389105797E0,-2.981510401E0,7.970157625E0
6.245794160E0,-3.041356802E-2,-6.903660297E0,-2.222995996E0,7.252803712E0
6.254002198E0,1.376080513E-2,-5.666407585E0,-4.879364967E-1,5.687393630E0
6.262224583E0,7.533870935E-1,1.203995705E0,3.542876244E-1,1.463802408E0
6.270439544E0,2.722056150E0,1.838810730E1,6.947509766E0,1.984439396E1
6.278648506E0,2.798264027E0,1.972614098E1,3.075728226E1,3.664643681E1
6.286858083E0,-6.031558514E0,2.001810074E1,2.880298996E1,3.559095792E1
6.295068544E0,-1.492239189E1,2.087896729E1,1.581081200E1,3.014284045E1
6.303303929E0,-1.239044952E1,1.806381226E1,4.916578293E0,2.244988407E1
6.311511237E0,-2.436789036E0,1.200822544E1,2.975497246E-1,1.225658822E1
6.319718044E0,2.591007948E0,5.811703682E0,-9.416859150E-1,6.432417449E0
6.327926236E0,5.514289856E0,1.107637405E0,-1.469287872E-1,5.626352398E0
6.336133967E0,6.163927078E0,-2.488549232E0,-1.631202698E-1,6.649321960E0
6.344360544E0,5.746487141E0,-4.854246140E0,-1.075055361E0,7.598787013E0
6.352578313E0,5.008314610E0,-6.203482628E0,-1.482044697E0,8.109430832E0
6.360787929E0,3.825686216E0,-6.681800842E0,-8.288488388E-1,7.743986565E0
6.368997082E0,2.028272152E0,-5.686819077E0,1.124382019E-1,6.038745025E0
6.377207890E0,2.040791512E-1,-3.309722900E0,2.258608341E-1,3.323691787E0
6.385426929E0,-5.839197636E-1,-1.045931816E0,-1.165598631E0,1.671393378E0
6.393638390E0,-1.180463314E0,9.886732101E-1,-3.772007465E0,4.074188100E0
6.401874621E0,-3.036242008E0,3.700497627E0,-6.090112209E0,7.746090301E0
6.410085313E0,-6.305917740E0,6.974918365E0,-8.430974960E0,1.262914975E1
6.418295851E0,-1.080252361E1,1.391385555E1,-2.317464590E0,1.776683807E1
6.426523928E0,-1.149523067E1,1.317314625E1,2.117201805E0,1.761120819E1
6.434742198E0,-1.054491425E1,8.172676086E0,-2.321697712E0,1.354171817E1
6.442952274E0,-6.487127781E0,3.290209770E0,-5.867997169E0,9.345678036E0
6.451160621E0,-2.774312735E0,2.448663712E-1,-5.743933678E0,6.383537012E0
6.459368813E0,-7.157948017E-1,-1.692788124E0,-4.650281906E0,5.000301555E0
6.467585505E0,1.630816460E-1,-2.910388470E0,-4.021402359E0,4.966752823E0
6.475792082E0,5.392410755E-1,-3.642826080E0,-4.062235355E0,5.482948009E0
6.483998659E0,7.928431034E-1,-4.108164310E0,-4.260192871E0,5.971168854E0
6.492207428E0,1.041394711E0,-4.425238132E0,-4.155309677E0,6.159044892E0
6.500416082E0,1.024837494E0,-4.500632286E0,-4.147332191E0,6.205348271E0
6.508640928E0,7.372931242E-1,-4.090354919E0,-4.515667915E0,6.137251929E0
6.516857659E0,1.721200943E-1,-3.192774773E0,-5.406743050E0,6.281425513E0
6.525065043E0,-7.711639404E-1,-1.784984589E0,-6.902559757E0,7.171205966E0
6.533273043E0,-1.952354908E0,-4.542465210E-1,-7.398634911E0,7.665365492E0
6.541481466E0,-2.928085089E0,1.054877281E0,-7.376021385E0,8.005756669E0
6.549697813E0,-3.942983389E0,2.074282646E0,-6.403777599E0,7.801162352E0
6.557905043E0,-4.655398369E0,2.470129967E0,-5.230709076E0,7.425267232E0
6.566114428E0,-4.471507072E0,2.282388687E0,-4.291874409E0,6.604836074E0
6.574325582E0,-3.355591297E0,1.293574333E0,-3.623480082E0,5.105187108E0
6.582537235E0,-2.217741251E0,7.123250961E-1,-2.844815731E0,3.676786619E0
6.590762582E0,-9.640498161E-1,1.683855057E-1,-2.712630272E0,2.883766412E0
6.598976351E0,1.412658691E-1,-3.801908493E-1,-2.254321575E0,2.290516730E0
6.607183697E0,5.279374123E-1,-8.489437103E-1,-1.668660879E0,1.945212704E0
6.615391966E0,7.533181906E-1,-1.003148079E0,-8.350594044E-1,1.507023083E0
6.623601312E0,8.793504238E-1,-1.055119514E0,1.162588358E0,1.799484940E0
6.631819774E0,9.444469213E-1,-1.660349369E0,-7.768663168E-1,2.062101183E0
6.640029581E0,1.092803836E0,-1.922172546E0,-1.328281045E0,2.579398778E0
6.648263735E0,1.288485885E0,-2.075821400E0,-1.515976667E0,2.875311394E0
6.656474812E0,1.376706839E0,-2.232243538E0,-1.410469294E0,2.977861071E0
6.664685504E0,1.602854967E0,-2.336578846E0,-1.337181568E0,3.133177189E0
6.672911120E0,1.930136681E0,-2.267816544E0,-1.663281083E0,3.411000358E0
6.681128889E0,2.087962866E0,-2.119547367E0,-2.089827538E0,3.635856035E0
6.689340697E0,2.337697029E0,-1.904448509E0,-2.282501698E0,3.781741070E0
6.697552158E0,2.364031792E0,-1.480912209E0,-2.688342810E0,3.874136593E0
6.705763235E0,2.416699648E0,-1.063967705E0,-2.877499580E0,3.905440859E0
6.713982889E0,2.475838184E0,-8.431892395E-1,-3.068880796E0,4.032216779E0
6.722194581E0,2.521759033E0,-6.755552292E-1,-2.908130646E0,3.908051604E0
6.730405773E0,2.510517836E0,-4.998044968E-1,-2.399281025E0,3.508426111E0
6.738615235E0,2.696756840E0,-3.600587845E-1,-1.714460611E0,3.215822596E0
6.746826004E0,2.801479578E0,-1.176109314E-1,-9.925085306E-1,2.974423195E0
6.755054196E0,2.875998497E0,2.540674210E-1,-3.049663901E-1,2.903260599E0
6.763273196E0,2.939966202E0,6.159486771E-1,2.411708236E-1,3.013462694E0
6.771482812E0,2.915722609E0,1.159683228E0,7.385045290E-1,3.223614812E0
6.779691927E0,1.929648757E0,1.919198990E0,4.474957466E0,5.237567509E0
6.787902581E0,-1.312381268E0,3.154989243E0,1.494621944E1,1.533185499E1
6.796119465E0,-2.596021652E0,2.970207214E0,1.470949936E1,1.522927545E1
6.804330273E0,-3.385162354E-1,2.132174492E0,8.000669479E0,8.286825292E0
6.812540312E0,1.540697694E0,1.702090263E0,8.975797653E0,9.264761419E0
6.820750081E0,1.534529448E0,3.523568153E0,1.244597316E0,4.039719747E0
6.828961158E0,2.492604494E0,2.567317009E0,-3.244115591E0,4.829956496E0
6.837188388E0,2.182676554E0,1.806155205E0,-1.718555689E0,3.313564126E0
6.845407273E0,2.397089005E0,2.153558731E0,-2.267861366E-1,3.230368842E0
6.853617658E0,2.141697645E0,2.252681732E0,1.565096021E0,3.480081801E0
6.861828696E0,1.663616419E0,2.260631561E0,2.697403669E0,3.892821753E0
6.870039234E0,1.859647751E0,2.403309822E0,3.496305466E0,4.632314731E0
6.878257696E0,2.164995909E0,2.784761429E0,4.343379021E0,5.595269861E0
6.886468311E0,2.353439331E0,3.431536674E0,4.866220951E0,6.402673424E0
6.894702273E0,2.601299524E0,4.175658226E0,4.044709682E0,6.368874096E0
6.902910619E0,3.330462456E0,4.621004105E0,2.537487984E0,6.235744091E0
6.911118888E0,4.364136696E0,4.184151649E0,4.513274431E-1,6.062714787E0
6.919344003E0,5.454679966E0,3.163735390E0,-1.604143739E0,6.506614502E0
6.927560350E0,6.039234161E0,2.024625778E0,-2.668427467E0,6.905936862E0
6.935768388E0,6.225867271E0,1.614972115E0,-3.272728920E0,7.216669093E0
6.943976196E0,6.091517448E0,2.209892273E0,-3.222969532E0,7.237246803E0
6.952184157E0,5.422352791E0,3.398270607E0,-1.080075502E0,6.489739286E0
6.960400465E0,4.022611141E0,4.493206978E0,2.624043226E0,6.576922699E0
6.968609772E0,3.855252266E0,4.982850075E0,4.006500244E0,7.466177677E0
6.976818503E0,4.402102947E0,6.459739685E0,-5.317897797E-1,7.835148213E0
6.985027042E0,3.481823921E0,6.081382751E0,-3.544670582E0,7.853088789E0
6.993236888E0,2.410938978E0,4.481073380E0,-2.472890615E-1,5.094486949E0
7.001464426E0,8.548048735E-1,3.604970932E0,3.806094646E0,5.311578226E0
7.009682542E0,-7.074115276E-1,3.580506325E0,4.045954704E0,5.448872001E0
7.017892926E0,-1.234266281E0,3.301884651E0,3.398669243E0,4.896611903E0
7.026101349E0,-8.096842766E-1,3.470712662E0,1.374642372E0,3.819826784E0
7.034311888E0,9.580838680E-2,3.950648308E0,-3.632908762E-1,3.968473455E0
7.042533349E0,1.083146811E0,4.918642044E0,-1.626949787E0,5.292750909E0
7.050743080E0,2.314282656E0,6.441025734E0,-2.038189650E0,7.141213746E0
7.058952311E0,3.260056019E0,8.335659981E0,-1.671856523E0,9.105289495E0
7.067160964E0,2.417156696E0,1.011623955E1,-5.837436914E-1,1.041737519E1
7.075369811E0,-8.361201286E-1,1.078297234E1,-1.944469929E0,1.098874663E1
7.083594464E0,-5.832049370E0,1.018721867E1,-4.553897381E0,1.259087786E1
7.091809849E0,-1.147411919E1,9.037131310E0,-5.776751041E0,1.570655933E1
7.100018387E0,-1.665992355E1,7.476120949E0,-1.953378439E0,1.836467055E1
7.108226887E0,-1.620562744E1,5.309845924E0,-1.581044436E0,1.712648610E1
7.116435926E0,-1.050535679E1,2.434814453E0,-2.662853479E0,1.110772845E1
7.124655733E0,-4.953273296E0,2.238788605E-1,-3.122433186E0,5.859575675E0
7.132863426E0,-2.380777597E0,-8.401155472E-1,-4.524346828E0,5.181081965E0
7.141096772E0,-1.414701104E0,-1.349415779E0,-5.924714088E0,6.238953373E0
7.149304772E0,-8.895179033E-1,-1.628829956E0,-6.479929924E0,6.740461479E0
7.157514579E0,-5.980658531E-1,-1.851443768E0,-6.612026691E0,6.892345302E0
7.165738695E0,-3.381798267E-1,-1.928444386E0,-6.504164696E0,6.792453293E0
7.173954502E0,1.864528656E-1,-2.283876896E0,-6.316048145E0,6.718878070E0
7.182165310E0,9.383113384E-1,-3.126255512E0,-6.257866859E0,7.057959997E0
7.190374810E0,1.500726938E0,-4.019766808E0,-6.397456169E0,7.703126116E0
7.198582618E0,1.877173424E0,-4.774831772E0,-6.679240227E0,8.422294730E0
7.206798195E0,2.107216120E0,-5.284080982E0,-6.825941086E0,8.885681927E0
7.215005348E0,2.240097046E0,-5.752469063E0,-6.851365566E0,9.222263562E0
7.223212848E0,1.993220806E0,-6.133712292E0,-7.183278561E0,9.653747798E0
7.231419964E0,1.745274782E0,-6.469099522E0,-7.460110664E0,1.002738669E1
7.239626964E0,1.435590744E0,-6.671369553E0,-7.246305466E0,9.953744792E0
7.247850310E0,1.047705770E0,-6.744277477E0,-6.986192703E0,9.766772986E0
7.256065156E0,5.616682172E-1,-6.744063377E0,-6.496374130E0,9.380870901E0
7.264272156E0,-3.834640980E-2,-6.774609566E0,-5.699790001E0,8.853497121E0
7.272477617E0,-7.615914345E-1,-6.798544884E0,-5.272167206E0,8.636896497E0
7.280685541E0,-1.438699603E0,-6.646663666E0,-5.175913334E0,8.546231525E0
7.288900310E0,-1.789349437E0,-6.543162823E0,-5.161410809E0,8.523785114E0
7.297106079E0,-1.932631016E0,-6.445718288E0,-5.491410255E0,8.685501338E0
7.305312079E0,-1.905926347E0,-6.518178463E0,-5.554346085E0,8.773252883E0
7.313520348E0,-1.846961856E0,-6.677386761E0,-5.234310627E0,8.683131335E0
7.321729540E0,-1.776355863E0,-6.856524467E0,-4.722792149E0,8.513056654E0
7.329955656E0,-1.676240206E0,-7.021115303E0,-4.230694294E0,8.366876092E0
7.338174117E0,-1.395259976E0,-7.095902443E0,-3.675382614E0,8.112152565E0
7.346385463E0,-1.135931849E0,-7.107985497E0,-3.316856861E0,7.925612811E0
7.354596233E0,-7.223249674E-1,-7.088304520E0,-3.025901318E0,7.740923272E0
7.362805886E0,-4.018491507E-1,-6.917392731E0,-2.649858952E0,7.418460581E0
7.371022271E0,-1.509180069E-1,-6.527305603E0,-2.031031132E0,6.837659112E0
7.379230617E0,-8.292722702E-2,-4.641233921E0,3.585405350E-1,4.655800742E0
7.387463694E0,-1.657878757E0,1.214178181E1,-7.580235958E0,1.440942069E1
7.395672771E0,3.287932396E0,1.727156067E1,2.087462997E1,2.729226051E1
7.403881771E0,4.787077904E0,1.552700424E1,3.284382248E1,3.664315285E1
7.412117809E0,-3.214025736E0,1.341674995E1,2.392006683E1,2.761356076E1
7.420336502E0,-9.754663467E0,1.273081207E1,1.151987743E1,1.974676205E1
7.428547386E0,-1.067713642E1,1.268990231E1,3.646175385E0,1.698026671E1
7.436757425E0,-4.800782204E0,9.806394577E0,-5.867488384E-1,1.093421961E1
7.444967848E0,8.186233044E-1,4.994718552E0,-8.941159248E-1,5.139727698E0
7.453181886E0,3.856652737E0,3.825473785E-1,8.065500259E-1,3.958615386E0
7.461391424E0,4.781289577E0,-3.335522175E0,9.484777451E-1,5.906441250E0
7.469602347E0,4.663173676E0,-5.746168613E0,-1.446504593E-1,7.401659693E0
7.477812809E0,4.174169540E0,-6.834807396E0,-9.741227627E-1,8.067663766E0
7.486021501E0,3.233753681E0,-6.657173634E0,-2.005785942E0,7.668005015E0
7.494259809E0,1.870226979E0,-4.621656895E0,-2.498440742E0,5.576707590E0
7.502476040E0,1.272770166E0,-2.474886894E0,-3.443659306E0,4.427617694E0
7.510683463E0,4.235284328E-1,-5.422401428E-2,-3.962799072E0,3.985736201E0
7.518891232E0,-3.149431229E0,3.402611732E0,-3.791605711E0,5.989403771E0
7.527100501E0,-1.067242050E1,8.869242668E0,-9.042749405E-1,1.390617626E1
7.535319809E0,-1.401221275E1,2.016432190E1,9.369730949E0,2.628181580E1
7.543529270E0,-1.423878765E1,1.925839996E1,2.651647568E0,2.409689353E1
7.551739463E0,-1.535380936E1,1.322227287E1,-8.668310165E0,2.203877408E1
7.559948386E0,-8.349181175E0,5.399645805E0,-1.244612312E1,1.593019089E1
7.568159193E0,-2.561567783E0,5.569162369E-1,-1.077874374E1,1.109293027E1
7.576384078E0,-1.137280464E-1,-1.911017895E0,-8.252000809E0,8.471153452E0
7.584598809E0,1.061058998E0,-3.432130337E0,-6.802459717E0,7.692777330E0
7.592806039E0,1.434528351E0,-4.476323605E0,-5.745489120E0,7.423340881E0
7.601013347E0,1.698048830E0,-5.350652695E0,-4.941780090E0,7.478906641E0
7.609219693E0,2.075933933E0,-5.969108105E0,-4.287279606E0,7.636787262E0
7.617436616E0,2.456597567E0,-6.328838348E0,-3.573497295E0,7.671958639E0
7.625645962E0,3.099064827E0,-6.107380867E0,-2.837331772E0,7.413147472E0
7.633881808E0,3.654288054E0,-5.008932114E0,-2.867426395E0,6.831204596E0
7.642090770E0,3.905784130E0,-3.080761909E0,-3.997511387E0,6.381719275E0
7.650300770E0,3.315267801E0,-9.825434685E-1,-5.525462151E0,6.518214805E0
7.658526039E0,9.984517097E-1,1.710954666E0,-6.776310921E0,7.059933525E0
7.666744154E0,-2.634664297E0,4.391691208E0,-8.886550903E0,1.025666586E1
7.674954501E0,-5.897813797E0,6.196426392E0,-9.907918930E0,1.308994901E1
7.683162577E0,-6.184554100E0,6.129131317E0,-7.820053101E0,1.170334100E1
7.691370424E0,-3.715461493E0,4.580088615E0,-6.042459488E0,8.443529031E0
7.699587116E0,-6.920657158E-1,2.738010406E0,-3.316356182E0,4.355901086E0
7.707796539E0,9.151878357E-1,1.190346718E0,-3.435760736E0,3.749526093E0
7.716004270E0,1.679962397E0,-1.294860840E-1,-2.582368135E0,3.083450257E0
7.724213847E0,1.796122909E0,-1.105192661E0,-1.115404606E0,2.385714936E0
7.732423616E0,1.579687595E0,-1.884004593E0,-5.771514177E-1,2.525468266E0
7.740647423E0,1.803708911E0,-2.471698761E0,-1.704599380E0,3.502616115E0
7.748861346E0,2.073230505E0,-2.753156662E0,-2.129060268E0,4.051055907E0
7.757068269E0,2.179631948E0,-2.848827839E0,-2.031294584E0,4.122229151E0
7.765276693E0,2.262758493E0,-2.740674496E0,-1.929874897E0,4.044229198E0
7.773485308E0,2.494976759E0,-2.588308334E0,-1.928144932E0,4.079459761E0
7.781702539E0,2.831972361E0,-2.373512745E0,-1.913168669E0,4.160990814E0
7.789909192E0,3.032979250E0,-2.046636581E0,-1.823706627E0,4.088225812E0
7.798116462E0,2.996309757E0,-1.659161568E0,-1.820338964E0,3.878701228E0
7.806323115E0,2.839709282E0,-1.371805191E0,-1.487489343E0,3.486893006E0
7.814530192E0,3.340054512E0,-1.035773277E0,-1.513766527E0,3.810548454E0
7.822755500E0,3.741326094E0,-6.813945770E-1,-1.068357825E0,3.950089613E0
7.830971500E0,3.855628967E0,-5.078935623E-1,-1.427923560E0,4.142800538E0
7.839179231E0,3.837360382E0,-4.119586945E-1,-1.509068131E0,4.143951169E0
7.847388038E0,3.809949875E0,-2.982244492E-1,-1.433369875E0,4.081568947E0
7.855598231E0,3.835412979E0,-2.531290054E-1,-1.139821768E0,4.009197011E0
7.863814808E0,3.811054707E0,-2.433748245E-1,-7.027017474E-1,3.882931757E0
7.872022961E0,3.723641396E0,-1.301946640E-1,-6.844228506E-2,3.726545349E0
7.880256884E0,3.302613020E0,1.888208389E-1,6.456882954E-1,3.370433124E0
7.888464500E0,1.199700832E0,8.548765182E-1,6.967694283E0,7.121717459E0
7.896672923E0,-2.076106071E0,1.764557838E0,2.073828888E1,2.091651277E1
7.904898154E0,-1.140428782E0,1.292070389E0,1.766545105E1,1.774931504E1
7.913113346E0,9.203175306E-1,1.202739716E0,7.463359833E0,7.615465001E0
7.921322461E0,1.436155796E0,2.510881424E0,-4.730618477E0,5.544891358E0
7.929532923E0,7.471644878E-1,1.301936150E0,-3.065641642E0,3.413422210E0
7.937743576E0,-7.407937050E-1,1.568481445E0,1.350092769E0,2.198103692E0
7.945962269E0,-9.812204838E-1,2.024733543E0,3.816929579E0,4.430721270E0
7.954173153E0,1.674079895E-2,2.451024055E0,5.167009830E0,5.718897600E0
7.962384807E0,1.748760939E0,3.047681808E0,4.801396847E0,5.949784946E0
7.970595153E0,3.303298950E0,3.335336685E0,3.554428816E0,5.888142234E0
7.978804461E0,3.620285511E0,3.396740913E0,2.032210350E0,5.364158361E0
7.987027422E0,3.249745846E0,3.462024689E0,8.373003006E-1,4.821569744E0
7.995244422E0,3.066902637E0,3.402122498E0,2.283158302E-1,4.586115720E0
8.003454422E0,3.385348082E0,3.509006500E0,1.450800896E-2,4.875850565E0
8.011662845E0,3.931306362E0,3.759097099E0,-3.079671860E-1,5.448011059E0
8.019870538E0,4.670892239E0,4.259828568E0,-6.645129919E-1,6.356488909E0
8.028085461E0,5.201451778E0,4.843943596E0,-1.002202392E0,7.177973237E0
8.036293076E0,5.289369583E0,5.280195236E0,-1.279061913E0,7.582472664E0
8.044500345E0,5.534214020E0,5.331825256E0,-1.261598229E0,7.787651474E0
8.052707807E0,6.459071159E0,5.008425713E0,8.376169205E-2,8.173796204E0
8.060914461E0,8.181192398E0,4.367987633E0,2.112450123E0,9.511764849E0
8.069138384E0,9.698456764E0,3.956608772E0,4.346675396E0,1.134056452E1
8.077353845E0,9.803996086E0,4.151915550E0,6.946513653E0,1.271262341E1
8.085563345E0,7.399983883E0,5.341398239E0,6.643670201E-1,9.150501634E0
8.093772153E0,3.838889599E0,5.510545731E0,-4.168476582E0,7.904390211E0
8.101980499E0,3.219901323E-1,4.859122276E0,-6.465756893E-1,4.912515350E0
8.110196845E0,-1.409142017E0,4.625296593E0,2.356423855E0,5.378827305E0
8.118404960E0,-7.402329445E-1,3.965734482E0,2.762048244E0,4.889162024E0
8.126639614E0,4.035779238E-1,3.687365532E0,9.498928189E-1,3.829077705E0
8.134848614E0,1.551125288E0,3.905015945E0,-1.060685158E0,4.333611911E0
8.143055960E0,2.375265598E0,4.692633629E0,-2.530652761E0,5.836685741E0
8.151281499E0,2.946497440E0,6.000067711E0,-3.431106091E0,7.513664133E0
8.159496883E0,3.653031588E0,7.494101524E0,-3.528268814E0,9.052893364E0
8.167705229E0,3.513965130E0,8.917963982E0,-1.999698758E0,9.791671340E0
8.175913306E0,1.532977104E0,1.080810165E1,-1.386061907E0,1.100391966E1
8.184121960E0,-2.908517361E0,1.229648399E1,-3.562552929E0,1.312839576E1
8.192338729E0,-9.448829651E0,1.247720718E1,-5.590207577E0,1.661961196E1
8.200547729E0,-1.562487221E1,1.150020599E1,-5.836142540E0,2.025961325E1
8.208755768E0,-1.788506317E1,9.539779663E0,-5.729219437E0,2.106434988E1
8.216964191E0,-1.387215042E1,5.967270851E0,-4.757797241E0,1.583292498E1
8.225172037E0,-6.976039886E0,2.827368736E0,-3.536711454E0,8.316698526E0
8.233398191E0,-2.552240372E0,1.267135620E0,-4.053758144E0,4.955049817E0
8.241615960E0,-1.044175029E0,1.045751572E0,-5.273839474E0,5.476977327E0
8.249825537E0,-7.528628111E-1,1.178457260E0,-7.051437855E0,7.188764828E0
8.258034844E0,-5.973343849E-1,9.636592865E-1,-8.201715469E0,8.279709187E0
8.266244691E0,3.593913317E-1,-9.101390839E-2,-8.589628220E0,8.597625173E0
8.274462767E0,1.438528895E0,-1.276270866E0,-8.704218864E0,8.914126920E0
8.282673844E0,2.344258785E0,-2.452909470E0,-8.741947174E0,9.377310623E0
8.290884421E0,2.972795486E0,-3.622553825E0,-8.065525055E0,9.328081455E0
8.299094844E0,3.049104691E0,-4.672821045E0,-7.582192421E0,9.413922553E0
8.307306460E0,2.677766800E0,-5.677477837E0,-7.098708630E0,9.476067424E0
8.315532537E0,2.055287361E0,-6.556303024E0,-7.017530441E0,9.821153139E0
8.323750421E0,1.413701177E0,-7.297049046E0,-6.797121048E0,1.007205691E1
8.331960575E0,8.258797526E-1,-7.848907471E0,-6.026398659E0,9.930000335E0
8.340169536E0,2.276571989E-1,-8.183648109E0,-5.063405514E0,9.626110304E0
8.348379306E0,-3.216512203E-1,-8.434939384E0,-5.033771038E0,9.828047252E0
8.356596883E0,-6.532055140E-1,-8.586458206E0,-5.295154095E0,1.010903551E1
8.364804998E0,-8.348063231E-1,-8.479094505E0,-5.738161564E0,1.027221706E1
8.373037652E0,-7.796809673E-1,-8.326735497E0,-6.404314518E0,1.053364471E1
8.381245959E0,-5.160212517E-1,-8.154648781E0,-6.819606304E0,1.064291336E1
8.389454575E0,-1.517541409E-1,-8.053540230E0,-6.703876972E0,1.047971879E1
8.397679229E0,7.690882683E-2,-8.037837029E0,-6.343954563E0,1.024004388E1
8.405895959E0,2.496805191E-1,-8.017574310E0,-6.281877995E0,1.018851458E1
8.414106113E0,4.479849339E-1,-7.859764099E0,-6.107350826E0,9.963750113E0
8.422317690E0,6.249058843E-1,-7.889012814E0,-5.421140194E0,9.592486202E0
8.430528305E0,6.893622875E-1,-7.891857624E0,-4.827652931E0,9.277007597E0
8.438746767E0,8.404419422E-1,-7.714723110E0,-4.349267960E0,8.896034347E0
8.446957382E0,7.876061797E-1,-7.632420063E0,-4.168995857E0,8.732392912E0
8.455167036E0,8.516361117E-1,-7.523348808E0,-4.050493240E0,8.586766379E0
8.463375882E0,8.015277386E-1,-7.307741642E0,-3.856790066E0,8.301828969E0
8.471586421E0,6.358780861E-1,-6.909812450E0,-3.551867962E0,7.795230276E0
8.479814151E0,3.034937382E-1,-6.077364922E0,-2.475640297E0,6.569266909E0
8.488031805E0,-4.391715527E-1,-2.922217846E0,4.683763027E0,5.538038000E0
8.496241651E0,3.080956936E-1,1.871409607E1,-5.210689545E0,1.942842248E1
8.504451844E0,-9.391639233E-1,1.875708389E1,2.020291138E1,2.758383318E1
8.512661343E0,-2.993027449E0,2.040932274E1,2.986856270E1,3.629916949E1
8.520900036E0,-9.654926300E0,2.100773239E1,1.889260101E1,2.985754168E1
8.529109305E0,-1.098445702E1,1.865150070E1,7.212771893E0,2.281580270E1
8.537318420E0,-4.986382961E0,1.179038048E1,1.325688839E0,1.286990823E1
8.545528190E0,7.356946468E-1,5.001829147E0,-6.985998154E-2,5.056127159E0
8.553738305E0,3.536334038E0,-3.285484314E-1,3.013372421E-2,3.551691222E0
8.561965689E0,4.769214630E0,-3.937968254E0,6.924366951E-1,6.223541655E0
8.570182613E0,5.235211372E0,-6.050432682E0,4.106235504E-2,8.001053673E0
8.578391805E0,5.426100254E0,-6.707752705E0,-9.721088409E-1,8.682252352E0
8.586602036E0,4.748332977E0,-5.950328827E0,-2.477361202E0,8.005647865E0
8.594812651E0,3.245358467E0,-3.651450157E0,-4.245678902E0,6.472343406E0
8.603032959E0,2.494746923E0,-5.635938644E-1,-4.785704136E0,5.426266150E0
8.611242035E0,3.384287357E-1,4.242243767E0,-4.926774502E0,6.510320513E0
8.619477651E0,-8.228115082E0,2.011847878E1,2.471705914E0,2.187611474E1
8.627687612E0,-1.273489380E1,2.889255714E1,1.765874672E1,3.617718499E1
8.635898497E0,-1.496556091E1,2.413905334E1,2.509847403E0,2.851247523E1
8.644126728E0,-1.674917603E1,1.584697247E1,-1.157962132E1,2.580211355E1
8.652344997E0,-9.581409454E0,5.977763176E0,-1.621329308E1,1.975874318E1
8.660555612E0,-2.756026745E0,3.490791321E-1,-1.234696770E1,1.265563712E1
8.668767035E0,-4.204869270E-2,-2.135203838E0,-9.966039658E0,1.019229169E1
8.676978074E0,1.207522154E0,-3.539514542E0,-8.500297546E0,9.286621093E0
8.685198266E0,1.886851907E0,-4.746721268E0,-7.113045692E0,8.757110935E0
8.693409535E0,2.264776945E0,-5.191976547E0,-7.222650528E0,9.178916915E0
8.701619920E0,2.872625351E0,-5.224205494E0,-6.740087032E0,8.998503912E0
8.709831650E0,3.749423265E0,-5.366434097E0,-5.690061092E0,8.673729589E0
8.718042381E0,4.841332912E0,-5.294070244E0,-4.524065495E0,8.481323760E0
8.726269535E0,5.874701023E0,-4.888208866E0,-3.723735571E0,8.501347225E0
8.734487689E0,6.606598377E0,-3.939027786E0,-3.293027878E0,8.367025435E0
8.742698343E0,6.923340797E0,-2.419014454E0,-3.281745911E0,8.034558790E0
8.750908535E0,5.874535084E0,1.052017212E-1,-4.230881214E0,7.240275250E0
8.759119150E0,3.117339611E0,3.110661507E0,-6.306978226E0,7.692333560E0
8.767339035E0,-5.596504211E-1,5.986188889E0,-9.812597275E0,1.150802899E1
8.775549535E0,-2.912486553E0,6.141464233E0,-1.198402214E1,1.377740714E1
8.783761381E0,-4.051221371E0,5.204957008E0,-1.201892948E1,1.370980080E1
8.791973496E0,-2.069618225E0,3.110965729E0,-9.107686043E0,9.844357390E0
8.800184689E0,8.520171642E-1,1.379320145E0,-5.486633301E0,5.721153930E0
8.808413535E0,2.398653507E0,3.303098679E-1,-3.022501945E0,3.872745960E0
8.816631188E0,2.732012272E0,-3.827505112E-1,-1.075674534E0,2.960990495E0
8.824841842E0,2.520940065E0,-1.011269569E0,-6.410819292E-1,2.790840554E0
8.833052727E0,2.651400089E0,-1.716586590E0,-1.296245575E0,3.414212141E0
8.841262188E0,2.694445610E0,-2.386958599E0,-1.530865669E0,3.911669490E0
8.849482535E0,2.574203014E0,-2.962672710E0,-1.481052995E0,4.194933697E0
8.857693573E0,2.516359806E0,-3.406019688E0,-1.435555935E0,4.471449164E0
8.865929573E0,2.616798639E0,-3.742708683E0,-1.614003420E0,4.843605108E0
8.874141342E0,2.682900667E0,-3.965232372E0,-1.785086036E0,5.109555354E0
8.882352073E0,2.865103006E0,-4.224176407E0,-1.952740073E0,5.464949711E0
8.890580188E0,3.024740458E0,-4.209507465E0,-2.141582012E0,5.608509735E0
8.898798727E0,3.114161730E0,-3.988834858E0,-2.390686750E0,5.596801760E0
8.907008573E0,3.079230785E0,-3.591753006E0,-2.720010757E0,5.457179712E0
8.915217304E0,2.990285635E0,-3.023217201E0,-2.970505476E0,5.187056314E0
8.923427342E0,2.907806158E0,-2.376506805E0,-3.042354584E0,4.833119351E0
8.931646342E0,2.784318209E0,-1.747914791E0,-2.932017326E0,4.405037980E0
8.939855726E0,2.476847410E0,-1.018143654E0,-2.509072065E0,3.669718276E0
8.948065150E0,2.102198601E0,-2.552042007E-1,-1.878420234E0,2.830694388E0
8.956274726E0,2.014925003E0,6.193885803E-1,-1.169217825E0,2.410525939E0
8.964485496E0,2.009779215E0,1.686967850E0,-3.437603712E-1,2.646364338E0
8.972709611E0,3.530535936E0,3.915771484E0,1.250251007E1,1.356874012E1
8.980926880E0,4.449600697E0,5.747860909E0,2.084714508E1,2.207805040E1
8.989136380E0,1.834803581E0,6.853466034E0,9.913531303E0,1.219075895E1
8.997345188E0,-4.853117466E-1,1.004429436E1,-3.780385733E0,1.074312305E1
9.005552188E0,-5.501947403E-1,6.582917213E0,4.230795860E0,7.844561613E0
9.013789034E0,7.554304600E-1,2.937644958E0,1.359108543E1,1.392544564E1
9.021997418E0,2.316789627E-1,1.194810867E0,1.255687428E1,1.261571796E1
9.030206303E0,5.696190596E-1,5.237092972E-1,5.913852692E0,5.964259464E0
9.038415803E0,9.057425261E-1,6.405677795E-1,2.302075386E0,2.555434931E0
9.046625841E0,1.168708324E0,9.476928711E-1,2.012107611E0,2.512484420E0
9.054851380E0,1.385672808E0,1.455499649E0,2.386464834E0,3.119901082E0
9.063067072E0,1.460883856E0,2.360231400E0,2.489740133E0,3.728763848E0
9.071275918E0,1.459354520E0,3.680408478E0,2.711381435E0,4.798615578E0
9.079484649E0,1.488063812E0,5.357465744E0,2.550378799E0,6.117287400E0
9.087693880E0,1.697474360E0,6.565802574E0,2.067577600E0,7.089856119E0
9.095912726E0,1.836292505E0,7.203258514E0,1.233642101E0,7.535302000E0
9.104124534E0,2.585247040E0,7.599038124E0,-1.050076246E0,8.095155514E0
9.112359034E0,3.727055073E0,6.892944336E0,-2.962632656E0,8.377398963E0
9.120568918E0,4.843914986E0,5.631009102E0,-4.165921211E0,8.516259474E0
9.128778380E0,5.367410660E0,4.611827850E0,-4.674805641E0,8.481265300E0
9.137003187E0,5.448032379E0,4.215886116E0,-4.975885391E0,8.497893149E0
9.145219303E0,5.383353710E0,4.432598114E0,-5.332152367E0,8.778398036E0
9.153432341E0,5.157022476E0,4.821897507E0,-5.422986507E0,8.902491732E0
9.161643533E0,5.061150551E0,4.762697220E0,-5.180641174E0,8.668193161E0
9.169855764E0,4.777926445E0,4.496953011E0,-4.428017139E0,7.915712430E0
9.178078033E0,4.932712555E0,3.689496040E0,1.001250863E0,6.240716103E0
9.186289226E0,4.428086281E0,3.946547508E0,8.178780556E0,1.010324882E1
9.194500956E0,2.463781118E0,4.250832558E0,6.542176008E-1,4.956591117E0
9.202713495E0,2.424459457E0,3.588393211E0,9.529466927E-2,4.331702965E0
9.210926225E0,2.589678049E0,3.260317802E0,8.020307422E-1,4.240207292E0
9.219154495E0,2.424840927E0,3.171454430E0,2.044029236E0,4.485089992E0
9.227372995E0,2.700938225E0,3.677911758E0,3.536665440E0,5.773223071E0
9.235584841E0,4.062865734E0,5.568647385E0,4.442366123E0,8.200690729E0
9.243796225E0,4.196984291E0,7.611515999E0,4.469151020E0,9.773595233E0
9.252007225E0,1.937796474E0,8.932683945E0,3.208101273E0,9.687095096E0
9.260225264E0,-3.585788727E0,9.169625282E0,-2.660562754E0,1.019894616E1
9.268435456E0,-9.320741653E0,8.857501030E0,-6.582118034E0,1.444492393E1
9.276645302E0,-1.323228836E1,8.758721352E0,-8.569539070E0,1.803456833E1
9.284854994E0,-1.562262344E1,8.527989388E0,-1.090026569E1,2.087124238E1
9.293064764E0,-1.208140659E1,6.940626144E0,-1.100509644E1,1.775513515E1
9.301289764E0,-5.332396984E0,4.672939301E0,-9.293549538E0,1.168934910E1
9.309506302E0,-1.340749264E0,2.603039742E0,-8.822013855E0,9.295232807E0
9.317714917E0,7.450233698E-1,1.515597343E0,-8.094701767E0,8.268995817E0
9.325924148E0,1.829963088E0,8.037424088E-1,-6.643542290E0,6.937681235E0
9.334134494E0,2.172598362E0,8.359851837E-1,-6.333739281E0,6.747985488E0
9.342353648E0,2.129558325E0,1.238651276E0,-6.013465881E0,6.498541956E0
9.350561994E0,2.806834936E0,5.202074051E-1,-6.567369461E0,7.160955225E0
9.358796763E0,4.056144714E0,-9.775733948E-1,-8.056248665E0,9.072546624E0
9.367007494E0,5.071132183E0,-2.427393913E0,-8.503122330E0,1.019370944E1
9.375228609E0,5.456005096E0,-3.578489780E0,-8.433752060E0,1.066310248E1
9.383453648E0,5.473542690E0,-4.554937840E0,-8.369246483E0,1.098869487E1
9.391670379E0,5.172608376E0,-5.430099487E0,-7.866603851E0,1.086854701E1
9.399878956E0,4.697906017E0,-6.131397247E0,-7.355097771E0,1.066591845E1
9.408086994E0,4.147686958E0,-6.753345966E0,-6.997686386E0,1.057254007E1
9.416294840E0,3.576960087E0,-7.327652931E0,-6.374583244E0,1.035009432E1
9.424508571E0,2.647227287E0,-7.709718227E0,-6.091086864E0,1.017589832E1
9.432715763E0,1.862813234E0,-7.908146858E0,-5.465484619E0,9.791852838E0
9.440924955E0,1.078660727E0,-7.980371475E0,-5.372905731E0,9.680803368E0
9.449132571E0,3.823658228E-1,-8.023612976E0,-5.688458443E0,9.842922750E0
9.457340878E0,-2.413495779E-1,-8.031850815E0,-5.831533432E0,9.928527549E0
9.465566878E0,-7.244317532E-1,-7.989553928E0,-6.023931503E0,1.003222428E1
9.473784032E0,-1.054331660E0,-7.959403515E0,-6.012496471E0,1.003064471E1
9.481992763E0,-9.881470203E-1,-7.842195034E0,-5.686856747E0,9.737391701E0
9.490201378E0,-6.385767460E-1,-7.650839806E0,-5.224178314E0,9.286289305E0
9.498409032E0,-1.792854071E-1,-7.506239414E0,-4.653688908E0,8.833605937E0
9.506626994E0,7.874238491E-2,-7.364846230E0,-4.134211540E0,8.446233800E0
9.514834994E0,2.146025896E-1,-7.268560886E0,-3.644021273E0,8.133690593E0
9.523042570E0,3.887062073E-1,-7.147410393E0,-3.263900280E0,7.866995162E0
9.531250686E0,4.814471006E-1,-6.946219921E0,-3.032816410E0,7.594717762E0
9.539458224E0,4.753583670E-1,-6.795229435E0,-3.029999256E0,7.455333939E0
9.547683993E0,5.507230759E-1,-6.424221992E0,-3.420485497E0,7.298879719E0
9.555900032E0,9.403114915E-1,-5.499616146E0,-4.264970303E0,7.022815328E0
9.564109455E0,1.142360210E0,-3.259563446E-2,-9.053824425E0,9.125666334E0
9.572317647E0,-2.595764160E0,3.828703880E0,-2.033057213E-1,4.630150990E0
9.580526993E0,-6.163395882E0,6.231378555E0,7.866483212E0,1.177705760E1
9.588746147E0,-9.300910950E0,1.037126541E1,2.400231552E1,2.775213940E1
9.596955570E0,-1.158699417E1,1.526473141E1,3.230422211E1,3.756105995E1
9.605188416E0,-1.142544079E1,1.868864822E1,2.689499092E1,3.468640665E1
9.613396878E0,-8.775631905E0,1.801390457E1,1.455613136E1,2.476678085E1
9.621607032E0,-3.794439554E0,1.397102451E1,4.477441788E0,1.515370524E1
9.629832762E0,1.464313269E0,8.256239891E0,-1.036167622E0,8.448867014E0
9.638049224E0,5.847188473E0,3.278786659E0,-3.062596560E0,7.370179962E0
9.646259647E0,8.203706741E0,8.783340454E-3,-2.884846449E0,8.696161250E0
9.654469339E0,9.211679459E0,-1.709048748E0,-2.443743229E0,9.682343055E0
9.662677224E0,9.642944336E0,-2.680176735E0,-2.730063200E0,1.037414902E1
9.670894762E0,9.384613037E0,-2.792507648E0,-3.403724194E0,1.036602138E1
9.679104147E0,8.428728104E0,-2.522901535E0,-5.069798946E0,1.015437595E1
9.687311339E0,6.031277657E0,-1.322872162E0,-4.705854416E0,7.763463577E0
9.695518493E0,3.120764494E0,1.702399254E0,-8.677905798E-1,3.659288829E0
9.703728147E0,6.955227852E-1,6.338221550E0,9.104592800E-1,6.440942513E0
9.711953224E0,-1.191393614E0,1.043307877E1,2.851952314E0,1.088127673E1
9.720169685E0,-7.602430344E0,1.325142002E1,1.043975163E1,1.850366163E1
9.728379723E0,-1.123746777E1,1.069178104E1,1.217463017E0,1.555882643E1
9.736589916E0,-1.186989975E1,6.881756783E0,-1.021775341E1,1.710717923E1
9.744799877E0,-9.208520889E0,3.431407928E0,-1.149212170E1,1.512085574E1
9.753018070E0,-3.593586206E0,5.278406143E-1,-9.784700394E0,1.043708960E1
9.761229070E0,1.275134087E-1,-7.570171356E-1,-8.538686752E0,8.573126971E0
9.769439108E0,1.747361898E0,-1.666631222E0,-7.269420624E0,7.659987561E0
9.777649762E0,2.447287083E0,-2.403359413E0,-6.888243675E0,7.695014715E0
9.785859492E0,2.770333290E0,-3.282087326E0,-6.330429077E0,7.649913467E0
9.794084839E0,3.019467592E0,-3.818898678E0,-5.568749428E0,7.396765634E0
9.802303300E0,3.279631376E0,-3.935260296E0,-4.731879234E0,6.973731903E0
9.810512415E0,3.075643778E0,-3.288639069E0,-4.914788246E0,6.665573874E0
9.818721377E0,2.280174971E0,-2.013253689E0,-5.636980057E0,6.405305026E0
9.826929723E0,7.694296837E-1,-2.329158783E-1,-6.806109428E0,6.853422313E0
9.835147262E0,-1.040318489E0,1.315444946E0,-8.016639709E0,8.190187434E0
9.843357492E0,-2.378022671E0,2.389682770E0,-8.285505295E0,8.945120097E0
9.851594146E0,-2.479844093E0,2.586838722E0,-7.960606575E0,8.729983868E0
9.859804185E0,-1.286890030E0,2.200967789E0,-6.690938950E0,7.160238067E0
9.868013838E0,4.032773972E-1,1.821475029E0,-4.989321232E0,5.326699756E0
9.876240992E0,1.592455864E0,1.709576607E0,-2.957313299E0,3.768855238E0
9.884457300E0,2.444432735E0,1.314610481E0,-6.934458017E-1,2.860824915E0
9.892667069E0,2.744812489E0,9.271183014E-1,1.229438066E0,3.147230831E0
9.900877184E0,3.082243681E0,1.850509644E-1,2.194804430E0,3.788355376E0
9.909086454E0,3.341531038E0,-8.747582436E-1,8.843493462E-1,3.565544198E0
9.917304454E0,3.589851856E0,-1.796711922E0,1.039270163E-1,4.015720471E0
9.925515146E0,3.837181807E0,-2.311306477E0,-3.364546895E-1,4.492137977E0
9.933724069E0,3.937632322E0,-2.741950035E0,-7.838077545E-1,4.861850769E0
9.941931953E0,4.041006088E0,-3.066569328E0,-1.172819495E0,5.206638380E0
9.950140030E0,4.093009472E0,-3.271393776E0,-1.348337054E0,5.410430351E0
9.958365800E0,4.144195557E0,-3.286180496E0,-1.403394341E0,5.472006464E0
9.966582069E0,4.021442890E0,-3.078761578E0,-1.812938929E0,5.379360866E0
9.974790761E0,3.589128494E0,-2.703081608E0,-2.468377590E0,5.126536985E0
9.982997646E0,2.885230780E0,-2.377565384E0,-2.510410070E0,4.503280197E0
9.991206222E0,2.364141464E0,-2.056861877E0,-2.213118553E0,3.836370599E0
9.999424030E0,2.214730263E0,-1.848652840E0,-1.756225467E0,3.377406601E0
1.000763184E1,2.354725838E0,-1.693649292E0,-1.269742846E0,3.166295721E0
1.001584138E1,2.586214781E0,-1.459949493E0,-7.181443572E-1,3.055436259E0
1.002405057E1,2.685167313E0,-8.186903000E-1,-1.482724547E-1,2.811114018E0
1.003225838E1,2.769835949E0,-7.460021973E-2,5.499188900E-1,2.824883566E0
1.004048334E1,2.736217499E0,6.501951218E-1,1.105212450E0,3.021776705E0
1.004870138E1,1.231361151E0,2.080617905E0,6.975818634E0,7.382903681E0
1.005691045E1,-1.541941404E0,4.366159439E0,1.671280670E1,1.734240005E1
1.006511972E1,4.160866737E-1,4.407959938E0,6.910614014E0,8.207303149E0
1.007333034E1,2.336715698E0,5.978405952E0,-5.415231705E0,8.397994546E0
1.008154980E1,-2.183923721E-1,6.131136894E0,-2.653002024E0,6.684082179E0
1.008975999E1,-1.347649097E0,4.432198524E0,1.042421436E1,1.140722521E1
1.009799588E1,-2.433836699E0,3.439201355E0,1.929156303E1,1.974629260E1
1.010620557E1,-2.208356857E0,2.511205673E0,1.569020653E1,1.604261746E1
1.011441403E1,-5.941348076E-1,1.633979797E0,6.800545216E0,7.019280688E0
1.012264076E1,9.237289429E-1,1.796433449E0,3.866706848E0,4.362553168E0
1.013085799E1,7.401671410E-1,2.871278763E0,2.724679947E0,4.026905753E0
1.013906688E1,8.521375656E-1,4.530909538E0,1.354692459E0,4.805254554E0
1.014727549E1,1.166944504E0,6.195033073E0,3.693211079E-1,6.314791551E0
1.015548326E1,2.032336473E0,7.542893410E0,-7.174661160E-1,7.844768331E0
1.016369934E1,3.301392078E0,8.176065445E0,-1.734234333E0,8.986367705E0
1.017190645E1,4.786000252E0,8.069261551E0,-2.146345139E0,9.624218298E0
1.018011391E1,6.366536140E0,7.402234077E0,-2.313998699E0,1.003396441E1
1.018832103E1,8.517500877E0,6.433023453E0,-8.270581961E-1,1.070586929E1
1.019652864E1,1.047889900E1,5.551545143E0,1.907261968E0,1.201102102E1
1.020475591E1,1.065066242E1,4.936724663E0,1.536377668E0,1.183927011E1
1.021297026E1,1.024437618E1,4.317764282E0,-1.307452321E0,1.119373768E1
1.022117645E1,1.027143192E1,4.493701935E0,-3.622456551E0,1.178209923E1
1.022938388E1,9.205724716E0,5.436844826E0,-6.622879982E0,1.257645373E1
1.023759157E1,7.625463486E0,5.050808907E0,-3.467086315E0,9.781566925E0
1.024580834E1,6.243282318E0,4.374947548E0,7.598267794E-1,7.661336495E0
1.025401514E1,4.707882881E0,4.466135025E0,3.487439156E0,7.367004490E0
1.026222176E1,3.160371065E0,4.828203201E0,4.055616379E0,7.053191876E0
1.027042884E1,2.249845266E0,5.299065590E0,2.140608788E0,6.141995265E0
1.027863576E1,2.715283155E0,5.840119362E0,-4.429722428E-1,6.455693703E0
1.028686099E1,3.440363169E0,6.896790504E0,-2.232802868E0,8.024165168E0
1.029507714E1,4.111620903E0,8.147440910E0,-3.068867207E0,9.628300253E0
1.030328572E1,4.764366150E0,9.936770439E0,-3.253880262E0,1.149027103E1
1.031149272E1,5.168151379E0,1.109712124E1,-2.003712177E0,1.240446496E1
1.031969899E1,2.779353142E0,1.194261932E1,-1.683497310E0,1.237679778E1
1.032791491E1,-2.808923006E0,1.228453064E1,-3.975144863E0,1.321368677E1
1.033612403E1,-9.208105087E0,1.123300457E1,-6.172038078E0,1.578175038E1
1.034435845E1,-1.321651840E1,1.038681984E1,-6.688633442E0,1.809144003E1
1.035256538E1,-1.143630600E1,8.210113525E0,-4.592998028E0,1.480846683E1
1.036077222E1,-6.193159580E0,5.213078499E0,-3.392146826E0,8.777133536E0
1.036899568E1,-1.948110819E0,3.411917686E0,-4.222384453E0,5.767568684E0
1.037720961E1,3.104324341E-1,2.274793625E0,-4.865985870E0,5.380415674E0
1.038541630E1,9.864110947E-1,1.480574608E0,-6.567624092E0,6.804321732E0
1.039362276E1,1.741542697E0,6.697359085E-1,-8.148238182E0,8.359144850E0
1.040183049E1,2.613543749E0,-3.756704330E-1,-8.986160278E0,9.366045897E0
1.041004611E1,3.543473244E0,-1.340655327E0,-1.091145515E1,1.155047241E1
1.041825257E1,4.227889061E0,-2.268422127E0,-1.184942245E1,1.278395860E1
1.042646030E1,4.826942444E0,-3.622251987E0,-1.150812149E1,1.299449664E1
1.043466830E1,4.858317375E0,-5.016837120E0,-1.039210987E1,1.252069686E1
1.044287795E1,4.548488617E0,-6.317587376E0,-8.700701714E0,1.167488198E1
1.045110353E1,4.109969616E0,-7.302035332E0,-6.947487354E0,1.088481285E1
1.045931930E1,3.331531286E0,-7.773375511E0,-5.309353352E0,9.985674767E0
1.046752703E1,2.840246916E0,-8.016410828E0,-3.872002840E0,9.344637558E0
1.047573491E1,2.427458286E0,-8.061973572E0,-2.813101768E0,8.877021638E0
1.048394203E1,1.817268729E0,-8.034616470E0,-2.398643970E0,8.579686495E0
1.049216064E1,1.402135253E0,-7.975462437E0,-2.558902264E0,8.492465198E0
1.050036991E1,1.040236115E0,-7.975087166E0,-3.442105293E0,8.748268133E0
1.050857961E1,9.923094511E-1,-7.929748058E0,-5.048668861E0,9.452758306E0
1.051678857E1,1.219955206E0,-7.698069096E0,-6.534618855E0,1.017102758E1
1.052499676E1,1.517309070E0,-7.233045578E0,-7.355392933E0,1.042693533E1
1.053322145E1,1.503860354E0,-6.658901691E0,-7.210438728E0,9.929400503E0
1.054143964E1,1.538090587E0,-6.168655396E0,-6.643588066E0,9.195395284E0
1.054964964E1,1.359650493E0,-5.954970360E0,-5.857132912E0,8.462643050E0
1.055785926E1,1.021603227E0,-5.967526436E0,-5.239938259E0,8.006996807E0
1.056606984E1,7.196936607E-1,-5.922429562E0,-4.975914955E0,7.768710351E0
1.057428799E1,4.229338169E-1,-5.816444397E0,-4.587129593E0,7.419680339E0
1.058249760E1,2.107920647E-1,-5.564420223E0,-4.088016033E0,6.907899884E0
1.059073237E1,-9.236979485E-2,-5.141376019E0,-3.280945539E0,6.099744517E0
1.059894214E1,-7.440614700E-2,-4.298353672E0,-2.408006191E0,4.927461251E0
1.060715014E1,-8.953566551E-1,-2.077794552E0,-4.088115692E-2,2.262866547E0
1.061537414E1,-2.855756998E0,6.074079514E0,-1.101828337E0,6.801750925E0
1.062359099E1,-3.669127226E0,1.031908226E1,6.048393250E0,1.251115559E1
1.063179899E1,-6.100524902E0,1.265102673E1,2.054222679E1,2.488469334E1
1.064000826E1,-6.957599640E0,1.372135735E1,2.568399239E1,2.993912666E1
1.064821599E1,-3.039522409E0,1.188888073E1,1.962072945E1,2.314210892E1
1.065645399E1,-3.799204826E-1,8.996816635E0,9.705127716E0,1.323920515E1
1.066466337E1,2.510794163E0,6.130941391E0,4.367581844E0,7.935256822E0
1.067287330E1,4.874521732E0,3.741394997E0,1.873871565E0,6.424203708E0
1.068108326E1,6.754669189E0,1.919253349E0,1.840434074E0,7.259220816E0
1.068929241E1,8.194030762E0,6.831731796E-1,1.754579782E0,8.407580861E0
1.069751803E1,9.205543518E0,-6.633205414E-1,6.138632298E-1,9.249802899E0
1.070573526E1,9.256431580E0,-2.127079964E0,-9.219102859E-1,9.542322219E0
1.071394322E1,8.842559814E0,-3.814682007E0,-2.400222540E0,9.924904590E0
1.072215072E1,8.228612900E0,-5.477615356E0,-3.640684128E0,1.053417871E1
1.073035857E1,7.281026840E0,-6.590213776E0,-4.378719330E0,1.075255562E1
1.073857618E1,6.705220699E0,-6.697869301E0,-4.459333420E0,1.047411535E1
1.074678460E1,6.439944267E0,-5.135736465E0,-3.074279308E0,8.792034149E0
1.075499303E1,6.606112480E0,-2.402302742E0,-1.516457319E0,7.191065524E0
1.076320068E1,7.184510231E0,3.176775932E0,-1.072716117E0,7.928418030E0
1.077140710E1,3.025135279E0,1.369093323E1,-1.497433901E0,1.410090084E1
1.077963191E1,-1.280590439E1,2.550158691E1,-3.675528765E0,2.877206343E1
1.078784557E1,-2.831899261E1,2.649760818E1,-1.059972858E1,4.020500999E1
1.079605364E1,-2.937896347E1,1.973644447E1,4.951999664E0,3.573755777E1
1.080426414E1,-1.233207989E1,4.288990021E0,2.513343096E0,1.329633496E1
1.081247314E1,-4.071227074E0,-1.318972111E0,-6.298052311E0,7.614462570E0
1.082068930E1,4.871037006E-1,-2.975993633E0,-7.187085152E0,7.794100403E0
1.082889826E1,2.549583435E0,-4.447068214E0,-4.970819473E0,7.140436796E0
1.083713241E1,3.590808630E0,-5.609914780E0,-3.412080050E0,7.483805230E0
1.084534006E1,4.122206211E0,-6.313369751E0,-2.606213093E0,7.977691918E0
1.085354887E1,4.348104477E0,-6.603247643E0,-2.617012978E0,8.328123972E0
1.086177380E1,4.164426327E0,-6.326732635E0,-3.794831753E0,8.471761358E0
1.086999203E1,3.702001095E0,-5.443229675E0,-5.373050690E0,8.497248679E0
1.087820180E1,3.247831106E0,-3.737599850E0,-7.851185799E0,9.282196829E0
1.088640983E1,2.205537558E0,-1.154947281E0,-1.028101730E1,1.057816695E1
1.089461914E1,2.718372345E-1,1.534032822E0,-1.084917355E1,1.096046161E1
1.090283718E1,-2.072725058E0,3.784149170E0,-1.005639648E1,1.094290109E1
1.091104637E1,-3.353955507E0,5.099363327E0,-8.613324165E0,1.055660348E1
1.091925453E1,-3.052219152E0,4.727447510E0,-5.489981651E0,7.861596545E0
1.092746218E1,-2.006084919E0,3.557394028E0,-3.825678825E0,5.596002810E0
1.093567010E1,-5.210883617E-1,2.075937271E0,-2.553154945E0,3.331613544E0
1.094389599E1,6.748986244E-1,8.181371689E-1,-1.317295790E0,1.691184430E0
1.095211260E1,1.493950367E0,2.039718628E-2,-2.758753300E-1,1.519345564E0
1.096032360E1,1.985306501E0,-6.877450943E-1,1.598620415E-1,2.107128637E0
1.096853357E1,2.274374008E0,-1.364261627E0,3.415198326E-1,2.674064830E0
1.097674318E1,2.404553175E0,-1.818189144E0,3.902409077E-1,3.039732834E0
1.098496145E1,2.305943966E0,-2.007766724E0,3.328816891E-1,3.075599943E0
1.099317141E1,2.241942406E0,-2.005058289E0,3.627937436E-1,3.029551748E0
1.100138137E1,2.277479172E0,-1.991469860E0,4.411477745E-1,3.057364051E0
1.100959018E1,2.384177923E0,-1.937954903E0,7.194190621E-1,3.155556585E0
1.101780041E1,2.820028067E0,-1.790643692E0,9.740049243E-1,3.479604679E0
1.102602783E1,3.238380432E0,-1.796075344E0,1.219437480E0,3.898720589E0
1.103424522E1,3.733330250E0,-1.791015148E0,1.335967183E0,4.350896267E0
1.104245514E1,4.203544617E0,-1.906398296E0,1.458262324E0,4.840523816E0
1.105066453E1,4.486226559E0,-2.200098991E0,1.375944138E0,5.182652465E0
1.105887364E1,4.656549454E0,-2.414562702E0,1.257237911E0,5.393905174E0
1.106709226E1,4.802102566E0,-2.749045849E0,1.155318022E0,5.652627872E0
1.107530226E1,4.699216843E0,-2.966880322E0,1.324939847E0,5.713185046E0
1.108353564E1,4.326020718E0,-2.961164474E0,1.683677912E0,5.506153068E0
1.109174445E1,3.612989426E0,-2.854217529E0,2.088778496E0,5.056010868E0
1.109995291E1,2.631179810E0,-2.396160603E0,2.393416882E0,4.288722093E0
1.110817856E1,2.119199276E0,-1.942871094E0,2.811974764E0,4.021561355E0
1.111639345E1,1.162953138E0,-1.059350967E0,5.598154068E0,5.814981809E0
1.112460122E1,-9.996130466E-1,3.784637451E-1,1.220482063E1,1.225153491E1
1.113280868E1,-2.388219118E0,2.025396347E0,1.669779205E1,1.698888108E1
1.114101541E1,-7.322845459E-1,3.230076790E0,7.365620613E0,8.076014100E0
1.114923060E1,5.675363541E-2,3.657842636E0,-2.775444984E-1,3.668796080E0
1.115743880E1,-8.396387100E-1,3.592867851E0,-6.073071957E-1,3.739320071E0
1.116564656E1,-3.905904293E-1,4.011249542E0,9.073212147E-1,4.131091328E0
1.117385260E1,1.515738487E0,4.386559486E0,1.519025326E0,4.883319079E0
1.118205999E1,2.987302780E0,4.840257645E0,1.760082960E0,5.953987235E0
1.119028349E1,3.516466856E0,5.454216957E0,2.315831184E0,6.890362533E0
1.119849714E1,3.569744110E0,5.961691856E0,2.936620712E0,7.543777834E0
1.120670456E1,3.822780848E0,6.227082253E0,3.267995596E0,8.004373929E0
1.121491080E1,3.614840031E0,6.376230240E0,2.865910292E0,7.869995065E0
1.122311730E1,3.426206589E0,6.550330162E0,2.773723364E0,7.895521396E0
1.123133660E1,3.910962582E0,6.558873177E0,3.289999247E0,8.314958852E0
1.123954572E1,4.844368458E0,6.315720558E0,4.071667194E0,8.940621101E0
1.124775426E1,6.239073753E0,5.529478073E0,4.492414474E0,9.470108599E0
1.125596195E1,7.404191494E0,4.412562370E0,4.381673336E0,9.669116794E0
1.126416818E1,7.735147476E0,3.719790459E0,4.150205135E0,9.533810896E0
1.127239249E1,6.920103073E0,3.978957176E0,3.957459927E0,8.909624898E0
1.128060756E1,4.852869511E0,4.849141121E0,3.472595215E-1,6.869141233E0
1.128881383E1,3.602436781E0,4.298389435E0,4.423425198E-1,5.625777226E0
1.129702114E1,3.313972712E0,3.965434074E0,2.538741350E0,5.757802547E0
1.130522802E1,3.720622301E0,4.415574074E0,4.060071468E0,7.058647536E0
1.131344552E1,3.991193295E0,5.585702896E0,3.926110983E0,7.908479513E0
1.132165468E1,3.877706528E0,6.390910149E0,1.617068291E0,7.648218766E0
1.132988802E1,3.548498631E0,6.498349190E0,-8.452438116E-1,7.452168934E0
1.133809691E1,3.331089020E0,5.918839455E0,-2.519279957E0,7.244003454E0
1.134630706E1,2.752645969E0,5.069721222E0,-3.213855267E0,6.603635270E0
1.135453422E1,1.575566530E0,4.505724907E0,-2.954469681E0,5.613631438E0
1.136275060E1,1.341371536E0,4.733337402E0,-2.686586857E0,5.605489230E0
1.137096018E1,1.642692447E0,5.721956253E0,-2.790447950E0,6.574634712E0
1.137916945E1,1.800913215E0,7.140508652E0,-3.135040045E0,8.003663430E0
1.138737753E1,2.308454752E0,8.856334686E0,-2.896794796E0,9.599742054E0
1.139559429E1,2.211658001E0,1.038395405E1,-1.839264512E0,1.077500936E1
1.140380333E1,8.820850849E-1,1.120670986E1,-4.937073588E-1,1.125220720E1
1.141201095E1,-1.855785370E0,1.127212143E1,-6.249912381E-1,1.144094729E1
1.142021914E1,-4.122801781E0,9.715038300E0,-6.623313427E-1,1.057440998E1
1.142842779E1,-5.527934074E0,7.338082314E0,-6.073573828E-1,9.207300916E0
1.143665495E1,-5.546985626E0,5.088313103E0,-7.278946042E-1,7.562394483E0
1.144487168E1,-3.489549875E0,3.068131447E0,-1.833509922E0,4.995212462E0
1.145308068E1,-1.373947144E0,1.423370361E0,-3.085532188E0,3.665272544E0
1.146128953E1,9.112620354E-2,6.361198425E-1,-4.175473213E0,4.224633593E0
1.146949745E1,1.059510231E0,3.091907501E-2,-5.815948486E0,5.911748871E0
1.147771468E1,1.698016763E0,-1.225852966E-1,-7.067010880E0,7.269176766E0
1.148592268E1,2.227016449E0,-1.840190887E-1,-7.670084953E0,7.988971679E0
1.149413145E1,2.797025442E0,-2.030944824E-2,-7.440309525E0,7.948708676E0
1.150234022E1,3.152036428E0,1.988983154E-2,-8.047798157E0,8.643077254E0
1.151054872E1,3.940873861E0,-3.462133408E-1,-8.163297653E0,9.071371398E0
1.151877418E1,5.430544853E0,-1.325460434E0,-9.010498047E0,1.060361909E1
1.152698791E1,6.676276207E0,-2.062280178E0,-8.509868622E0,1.101106387E1
1.153519587E1,7.355579376E0,-3.020815372E0,-7.705486774E0,1.107268711E1
1.154340514E1,7.075756073E0,-4.134913921E0,-6.647361755E0,1.055231043E1
1.155161306E1,6.000309944E0,-5.233033180E0,-5.524510384E0,9.690643460E0
1.155983145E1,4.707289696E0,-6.082385063E0,-4.352506638E0,8.837324163E0
1.156803937E1,3.214610338E0,-6.656749725E0,-3.508536577E0,8.182656381E0
1.157627099E1,2.052428722E0,-7.057499886E0,-3.691189289E0,8.224697360E0
1.158447818E1,1.099548459E0,-7.322813511E0,-3.652472973E0,8.256704146E0
1.159268518E1,4.462516308E-1,-7.378201485E0,-3.379140854E0,8.127459048E0
1.160091014E1,-2.029297352E-1,-7.411868095E0,-3.534370184E0,8.213935825E0
1.160912749E1,-7.297875881E-1,-7.374435902E0,-4.138974667E0,8.487991876E0
1.161733679E1,-1.068900585E0,-7.240177155E0,-4.667086601E0,8.680115842E0
1.162554545E1,-1.108332872E0,-6.980813026E0,-5.142776966E0,8.741184542E0
1.163375379E1,-8.112440109E-1,-6.722859859E0,-5.235177994E0,8.559325333E0
1.164197187E1,-4.023606777E-1,-6.488230705E0,-5.544773579E0,8.544211247E0
1.165017968E1,-1.106729507E-1,-6.178631783E0,-5.649755955E0,8.373021053E0
1.165838898E1,-1.696119308E-1,-5.878472328E0,-5.396831512E0,7.981916781E0
1.166659945E1,-4.054157734E-1,-5.580810070E0,-4.938747406E0,7.463312195E0
1.167480752E1,-5.940222740E-1,-5.366580963E0,-4.379601479E0,6.952263143E0
1.168303064E1,-8.201336861E-1,-5.070036888E0,-3.938127279E0,6.471996584E0
1.169124691E1,-1.080218077E0,-4.737201691E0,-3.274811745E0,5.859380762E0
1.169945422E1,-1.324311972E0,-3.932712555E0,-3.053059340E0,5.151815366E0
1.170766252E1,-1.741470337E0,-1.173101425E0,-5.384454250E0,5.779380024E0
1.171587106E1,-2.531817675E0,3.533298492E0,-6.691750526E0,7.979587964E0
1.172408725E1,-3.586295366E0,6.328143120E0,2.136108637E0,7.580888464E0
1.173229541E1,-7.433258057E0,8.816794395E0,2.140482140E1,2.431369095E1
1.174050252E1,-1.062438679E1,1.151636887E1,3.183641243E1,3.548325666E1
1.174871075E1,-1.046122932E1,1.363506031E1,3.079742813E1,3.526802756E1
1.175691879E1,-3.418944836E0,1.032074928E1,2.233939743E1,2.484463176E1
1.176514464E1,3.866224289E-1,4.722805023E0,9.496997833E0,1.061354474E1
1.177335868E1,1.677205563E0,1.941172600E0,2.850904942E0,3.835209062E0
1.178156606E1,2.514658451E0,6.631946564E-2,1.628015757E0,2.996387942E0
1.178977337E1,3.554913521E0,-1.409537315E0,1.609409094E0,4.149024369E0
1.179798191E1,4.727811337E0,-2.517488003E0,2.097806692E0,5.752455023E0
1.180619798E1,6.123270035E0,-3.411011696E0,2.374943733E0,7.400661757E0
1.181440333E1,7.019316196E0,-4.112809658E0,2.029110909E0,8.384705971E0
1.182263352E1,7.491752148E0,-4.808542252E0,6.296319962E-1,8.924397194E0
1.183083910E1,7.612258911E0,-5.717236519E0,-1.234096527E0,9.599805903E0
1.183904549E1,7.043622017E0,-6.032210350E0,-3.912061691E0,1.006500867E1
1.184726929E1,5.409972191E0,-5.063073158E0,-5.362855911E0,9.146733430E0
1.185548568E1,4.103126049E0,-3.153645992E0,-4.976240158E0,7.179421462E0
1.186369479E1,3.112971306E0,5.482120514E-1,-4.598885536E0,5.580400969E0
1.187190352E1,-2.230419397E0,1.176351261E1,-5.444933176E-1,1.198546923E1
1.188011202E1,-4.924187183E0,1.956624222E1,-1.300216913E-1,2.017677773E1
1.188832764E1,-9.176460266E0,1.961870384E1,-1.008983421E1,2.389363342E1
1.189653545E1,-1.109050941E1,1.696943474E1,-1.046080112E1,2.281204670E1
1.190474129E1,-6.454928875E0,1.045930576E1,2.999355793E-1,1.229443554E1
1.191294891E1,-5.211269855E0,1.024764061E0,1.557456970E0,5.534721953E0
1.192115698E1,-4.265057087E0,-2.784793854E0,-5.338467598E0,7.378687218E0
1.192938256E1,-1.881668568E0,-4.038909435E0,-5.131343365E0,6.795892197E0
1.193759898E1,-4.871220589E-1,-5.273104191E0,-2.862482309E0,6.019694401E0
1.194580722E1,4.862672091E-1,-6.099356651E0,-1.664610863E0,6.341099012E0
1.195401498E1,9.586360455E-1,-6.641640663E0,-9.515069723E-1,6.777590965E0
1.196222272E1,1.150757909E0,-6.762409210E0,-7.077922821E-1,6.896041764E0
1.197043698E1,6.254014969E-1,-6.294095039E0,-1.188233614E0,6.435732943E0
1.197864360E1,-7.794260979E-1,-4.864371300E0,-2.874225616E0,5.703576604E0
1.198685083E1,-2.806176662E0,-2.269522667E0,-5.598101139E0,6.660637879E0
1.199505679E1,-5.374436378E0,1.263414383E0,-8.778791428E0,1.037053331E1
1.200326291E1,-7.097994804E0,4.633893013E0,-1.114032269E1,1.399861723E1
1.201148598E1,-7.873801231E0,6.827155113E0,-1.175689793E1,1.571087017E1
1.201969964E1,-6.887102127E0,7.300498009E0,-9.699546814E0,1.395745877E1
1.202790472E1,-4.507325649E0,6.149998665E0,-7.023033142E0,1.036636207E1
1.203611094E1,-1.899031878E0,3.860317230E0,-4.496952057E0,6.223419397E0
1.204431856E1,-3.585498333E-1,1.925919533E0,-2.726794720E0,3.357548730E0
1.205253375E1,2.069308758E-1,3.317880630E-1,-1.594265461E0,1.641519438E0
1.206074133E1,3.398666382E-1,-8.520641327E-1,-9.154103994E-1,1.295954790E0
1.206897418E1,3.284916878E-1,-1.645605087E0,-3.742500842E-1,1.719298118E0
1.207718156E1,4.000716209E-1,-2.449476719E0,-2.134668827E-2,2.482025217E0
1.208538894E1,4.928579330E-1,-2.960132122E0,2.106131911E-1,3.008263459E0
1.209361264E1,6.616890430E-1,-3.229866505E0,1.960714161E-1,3.302773687E0
1.210182564E1,8.382899761E-1,-3.188815594E0,3.670796752E-2,3.297365987E0
1.211003094E1,1.081485748E0,-2.962371826E0,4.370002449E-2,3.153913117E0
1.211823771E1,1.385564804E0,-2.322394848E0,1.367430389E-2,2.704347360E0
1.212644621E1,1.578897595E0,-1.536225319E0,3.638240695E-2,2.203231610E0
1.213466294E1,1.835684180E0,-8.691282272E-1,1.821953058E-2,2.031120931E0
1.214286991E1,2.027801037E0,1.601409912E-1,3.024187684E-1,2.056472537E0
1.215107606E1,2.465481520E0,6.275777817E-1,1.081982136E0,2.764622639E0
1.215928414E1,3.225065470E0,4.790754318E-1,3.521202564E0,4.798898629E0
1.216749168E1,4.352811813E0,-4.727554321E-2,6.055871964E0,7.458068845E0
1.217571779E1,4.952030182E0,-8.108158112E-1,7.449181080E0,8.981665990E0
1.218393298E1,4.796831131E0,-1.456097603E0,7.753460884E0,9.232874136E0
1.219214079E1,4.438350677E0,-1.705461979E0,7.740300179E0,9.084041180E0
1.220035075E1,3.813189983E0,-2.030572891E0,7.658013821E0,8.792543420E0
1.220856091E1,3.290780306E0,-2.222584248E0,6.111781120E0,7.288551586E0
1.221677883E1,2.112039089E0,-2.228946686E0,5.546728134E0,6.339960996E0
1.222498898E1,3.891744614E-1,-1.977598667E0,2.798862696E0,3.449055760E0
1.223319895E1,-1.080030441E0,-1.032984257E0,2.612216473E-1,1.517154896E0
1.224140798E1,-1.230948448E0,-2.814359665E-1,2.063931465E0,2.419556442E0
1.224961648E1,1.830616474E0,-1.656103134E-1,5.081341267E0,5.403574051E0
1.225784391E1,4.158718109E0,1.890783310E-1,5.447899818E0,6.856405717E0
1.226605925E1,4.730125427E0,1.215694427E0,2.961344481E0,5.711528747E0
1.227426787E1,5.207555294E0,2.280316353E0,5.192103386E-1,5.708594764E0
1.228247575E1,5.854208946E0,2.936976433E0,-2.195231915E-1,6.553303242E0
1.229068383E1,6.620708466E0,3.567851067E0,2.181715965E-1,7.524024233E0
1.229890133E1,6.847780228E0,4.431329727E0,1.734663486E0,8.338934861E0
1.230710998E1,6.834127903E0,5.454453468E0,3.900967121E0,9.574649409E0
1.231534325E1,6.686908245E0,6.655289650E0,5.869457245E0,1.111117233E1
1.232355302E1,6.039812088E0,7.699153900E0,6.503547668E0,1.174957161E1
1.233176171E1,5.310692310E0,7.929271698E0,6.183158875E0,1.137137881E1
1.233998810E1,5.219776154E0,7.523157120E0,5.707117558E0,1.078958512E1
1.234820414E1,5.334788799E0,7.167874336E0,5.988951206E0,1.075666912E1
1.235641306E1,5.310749054E0,6.746977806E0,6.307892799E0,1.065435482E1
1.236462233E1,4.520354271E0,6.372715950E0,4.777213097E0,9.157886016E0
1.237282925E1,2.949536800E0,6.251286507E0,2.819519520E0,7.465121610E0
1.238104625E1,2.202926636E0,5.876091957E0,2.216840744E0,6.655503387E0
1.238925533E1,2.338471651E0,5.457859039E0,2.347465754E0,6.384925248E0
1.239746271E1,3.689663410E0,5.104166031E0,1.059415698E0,6.386586614E0
1.240567041E1,5.252523422E0,5.240389824E0,-8.235971928E-1,7.465185875E0
1.241387748E1,5.894865036E0,5.929039001E0,-1.838175893E0,8.560480587E0
1.242210125E1,5.515222073E0,6.247952461E0,-2.216555119E0,8.623670974E0
1.243031575E1,4.778919220E0,6.055549622E0,-2.557707071E0,8.127091460E0
1.243852268E1,4.233365536E0,5.429428101E0,-1.356886387E0,7.017208414E0
1.244672756E1,3.806863785E0,5.166862488E0,-1.190624356E0,6.527347562E0
1.245493398E1,2.793642044E0,5.341827393E0,-1.568748116E0,6.229006856E0
1.246315056E1,2.473948956E0,6.283480644E0,-2.253577948E0,7.119070586E0
1.247135787E1,3.236714125E0,8.192105293E0,-3.043286324E0,9.319254214E0
1.247956471E1,4.007385731E0,1.072483253E1,-3.670806170E0,1.202314398E1
1.248777094E1,4.068722725E0,1.262951469E1,-3.369377136E0,1.368984471E1
1.249597525E1,3.051867008E0,1.369146442E1,-3.312290907E0,1.441323563E1
1.250419702E1,7.060369253E-1,1.376610661E1,-3.881725788E0,1.432033429E1
1.251240914E1,-2.540672541E0,1.253265667E1,-5.096059322E0,1.376562097E1
1.252061460E1,-5.363500595E0,9.596019745E0,-6.590279579E0,1.281727422E1
1.252882071E1,-5.820713043E0,6.538975716E0,-6.543655396E0,1.092969943E1
1.253702844E1,-3.567704439E0,3.626715660E0,-5.170832157E0,7.253901477E0
1.254524425E1,-4.940032959E-1,1.227050781E0,-3.731049538E0,3.958588578E0
1.255345175E1,1.942631602E0,-6.668262482E-1,-2.143172264E0,2.968444398E0
1.256168402E1,2.963431120E0,-1.602673531E0,-1.241173267E0,3.590403533E0
1.256989129E1,2.890525103E0,-1.792625427E0,-1.886317611E0,3.889323260E0
1.257809891E1,2.103001356E0,-1.582608700E0,-2.299557209E0,3.495029093E0
1.258632225E1,1.578512788E0,-1.714754105E0,-2.867223740E0,3.695004226E0
1.259453452E1,1.203644276E0,-1.944531918E0,-3.854084253E0,4.481509718E0
1.260274010E1,5.143439770E-1,-2.358404636E0,-4.891087055E0,5.454296906E0
1.261094598E1,2.518939972E-2,-2.791767120E0,-5.820473671E0,6.455424999E0
1.261915244E1,-2.081257105E-1,-3.454272270E0,-6.562937260E0,7.419397462E0
1.262736683E1,-2.889136076E-1,-4.213189602E0,-8.251179695E0,9.269110208E0
1.263557244E1,-7.983787060E-1,-4.913553238E0,-9.782279968E0,1.097603824E1
1.264377844E1,-9.594508410E-1,-5.749447823E0,-1.079009342E1,1.226388243E1
1.265198417E1,-1.700262427E0,-6.594985485E0,-1.093821526E1,1.288523492E1
1.266019098E1,-2.609397173E0,-7.270695686E0,-9.887685776E0,1.254744195E1
1.266841517E1,-2.424709320E0,-7.741318703E0,-9.090489388E0,1.218376903E1
1.267663125E1,-1.726211429E0,-8.206801414E0,-7.698101997E0,1.138385566E1
1.268483802E1,-1.222034216E0,-8.574596405E0,-6.626098156E0,1.090514777E1
1.269304444E1,-8.408136368E-1,-8.936488152E0,-5.669793606E0,1.061670135E1
1.270125106E1,-5.398770571E-1,-9.152254105E0,-4.948437214E0,1.041836135E1
1.270946906E1,-5.150130987E-1,-9.234375000E0,-4.298285961E0,1.019873435E1
1.271767579E1,-6.122642756E-1,-9.241257668E0,-3.968664646E0,1.007601161E1
1.272588287E1,-8.481786251E-1,-9.024765015E0,-3.533107042E0,9.728753051E0
1.273408917E1,-1.090934753E0,-8.448682785E0,-3.228893042E0,9.110221167E0
1.274229521E1,-1.171653152E0,-7.801649094E0,-3.124996662E0,8.485523191E0
1.275051914E1,-1.168811440E0,-7.216797829E0,-3.632746935E0,8.163647553E0
1.275873387E1,-7.947964668E-1,-6.757649422E0,-4.519739151E0,8.168572037E0
1.276694002E1,-4.295611382E-1,-6.186243057E0,-5.328978062E0,8.176315375E0
1.277514733E1,-7.385743856E-1,-5.255776405E0,-5.701420784E0,7.789407981E0
1.278335333E1,-1.857280970E0,-4.308516979E0,-6.027611732E0,7.638384277E0
1.279156764E1,-3.277288675E0,-3.419224739E0,-5.199598312E0,7.033316535E0
1.279977521E1,-4.655497551E0,-2.330471992E0,-3.915612221E0,6.514351558E0
1.280800906E1,-6.394870758E0,-1.143115997E0,-9.753962755E-1,6.569055038E0
1.281621721E1,-9.239910126E0,1.208218575E0,5.885174751E0,1.102138889E1
1.282442387E1,-1.300820351E1,4.545561790E0,1.706205368E1,2.193146521E1
1.283264964E1,-1.457654285E1,8.470182419E0,2.416752243E1,2.946673942E1
1.284086510E1,-1.034782505E1,1.076763725E1,2.898852730E1,3.260911238E1
1.284907406E1,-4.822694778E0,9.502092361E0,2.513875580E1,2.730394087E1
1.285728398E1,-3.569426060E0,6.487730980E0,1.303118038E1,1.498809921E1
1.286549264E1,-2.801768541E0,3.850459099E0,1.829786062E0,5.101378173E0
1.287371044E1,-7.197725773E-1,1.974096298E0,1.528952122E-1,2.106776140E0
1.288191702E1,6.266961098E-1,5.158205032E-1,9.225475788E-1,1.228785108E0
1.289012360E1,1.708706498E0,-5.282506943E-1,1.323086262E0,2.224698620E0
1.289832936E1,2.860227108E0,-1.449123859E0,2.038829803E0,3.799695519E0
1.290653413E1,4.168855190E0,-2.417901516E0,2.924403191E0,5.637174413E0
1.291475656E1,5.182544708E0,-3.292328835E0,3.814851761E0,7.228505569E0
1.292296883E1,6.071552753E0,-4.056650639E0,4.576148987E0,8.617500031E0
1.293117302E1,7.061930656E0,-4.776457310E0,4.087038994E0,9.454591306E0
1.293937890E1,7.107910156E0,-5.117410660E0,2.442166090E0,9.092549360E0
1.294758594E1,5.526753426E0,-4.626483440E0,-2.814904451E-1,7.213084591E0
1.295580013E1,2.616944551E0,-2.601366520E0,-3.006047726E0,4.759393815E0
1.296400575E1,-1.806015015E0,3.326924324E0,-5.995530128E0,7.090592162E0
1.297221137E1,-5.105063438E0,1.286137772E1,-7.539493561E0,1.575819382E1
1.298041813E1,-2.853184223E0,1.767092896E1,-1.685575247E0,1.797897534E1
1.298862448E1,-2.420655489E0,1.977842331E1,5.764859915E-1,1.993434066E1
1.299684886E1,-6.658928871E0,1.808658791E1,-7.191247463E0,2.057134016E1
1.300506302E1,-1.053468323E1,1.216272068E1,-1.046987343E1,1.919712412E1
1.301327002E1,-8.440107346E0,5.509425163E0,-8.529765129E0,1.320401722E1
1.302147563E1,-3.539478064E0,7.457866669E-1,-6.902436256E0,7.792799817E0
1.302968125E1,-5.984284878E-1,-2.166307449E0,-6.912260056E0,7.268448507E0
1.303789521E1,6.668138504E-1,-3.963745117E0,-6.593144417E0,7.721752998E0
1.304610160E1,1.445594788E0,-5.056593895E0,-4.943937778E0,7.218130427E0
1.305433317E1,2.343477011E0,-6.106661797E0,-3.048028708E0,7.216209656E0
1.306253952E1,3.178230286E0,-6.803218842E0,-2.056025982E0,7.785382277E0
1.307074683E1,3.985076427E0,-6.843478203E0,-1.716409445E0,8.103091350E0
1.307897021E1,4.878654480E0,-5.931721687E0,-2.069061995E0,7.954093867E0
1.308718510E1,5.403124332E0,-3.876667976E0,-3.360976219E0,7.451071621E0
1.309539290E1,5.017596722E0,-6.803598404E-1,-5.271508217E0,7.309443567E0
1.310360098E1,3.305934429E0,2.855931282E0,-7.331412315E0,8.534351321E0
1.311180906E1,5.074429512E-1,5.882919312E0,-8.342824936E0,1.022100611E1
1.312002521E1,-2.500661135E0,8.179027557E0,-7.826931953E0,1.159356122E1
1.312823202E1,-4.393579960E0,8.690244675E0,-5.288046360E0,1.108094453E1
1.313644025E1,-4.285554409E0,7.526698112E0,-2.729933739E0,9.081282910E0
1.314464944E1,-2.954124212E0,5.357079506E0,-7.588075995E-1,6.164490220E0
1.315285844E1,-1.788484335E0,3.419781685E0,4.260047674E-1,3.882661851E0
1.316108294E1,-7.436456680E-1,9.793033600E-1,1.161759496E0,1.691664587E0
1.316929783E1,5.478382111E-3,-1.060031891E0,1.291270137E0,1.670651426E0
1.317750621E1,6.889410019E-1,-2.469479561E0,6.871896982E-1,2.654279316E0
1.318571567E1,1.422774315E0,-3.722185612E0,4.695844650E-1,4.012413494E0
1.319392275E1,1.849962950E0,-4.678667545E0,3.198983669E-1,5.041292283E0
1.320213860E1,2.183132648E0,-5.382006645E0,2.245786190E-1,5.812271436E0
1.321034329E1,2.300597191E0,-5.651052475E0,2.258183956E-1,6.105582319E0
1.321854925E1,2.365171194E0,-5.562867165E0,3.203033805E-1,6.053273505E0
1.322675583E1,2.107510328E0,-4.953121185E0,3.248860240E-1,5.392639445E0
1.323496083E1,1.476549745E0,-4.106866837E0,-3.620937467E-2,4.364386037E0
1.324318294E1,6.221394539E-1,-3.116882324E0,-4.654857516E-1,3.212271767E0
1.325139479E1,-1.290502548E-1,-2.210863113E0,-7.818951011E-1,2.348601632E0
1.325960017E1,-6.516573429E-1,-1.588310719E0,-1.136916757E0,2.059118244E0
1.326780675E1,-8.826365471E-1,-1.223229408E0,-1.517721653E0,2.139816926E0
1.327601360E1,-5.323603153E-1,-1.163959503E0,-1.700875759E0,2.128658634E0
1.328421729E1,1.232767105E-1,-1.326141834E0,-1.263720512E0,1.835984435E0
1.329238921E1,7.399649620E-1,-1.596474171E0,-8.137964010E-1,1.938696084E0
1.330062332E1,8.833358288E-1,-1.911575794E0,-1.887830496E-1,2.114247678E0
1.330883044E1,3.442935944E-1,-1.936803818E0,-2.992665768E-1,1.989800892E0
1.331703867E1,-8.160567284E-2,-1.666486263E0,-5.409212112E-1,1.753975971E0
1.332526102E1,-5.660758018E-1,-8.890275955E-1,-6.426475048E-1,1.234426059E0
1.333347617E1,-1.346001148E0,1.642446518E-1,2.250087261E-1,1.374526945E0
1.334168363E1,-2.087223053E0,8.911514282E-1,2.220609665E0,3.175178456E0
1.334991086E1,-2.181176901E0,1.644024849E0,5.765747070E0,6.379983515E0
1.335814440E1,-1.716641665E0,2.627092361E0,1.181774139E1,1.222732532E1
1.336635929E1,-9.751975536E-1,3.398558617E0,1.749742508E1,1.785108107E1
1.337456579E1,-1.069536209E-1,3.656249046E0,1.813904190E1,1.850417351E1
1.338277175E1,9.959779978E-1,3.068331718E0,1.422491169E1,1.458611478E1
1.339097894E1,1.048614383E0,2.376852036E0,8.460137367E0,8.850024971E0
1.339918663E1,7.678010464E-1,2.502258301E0,4.494978905E0,5.201504629E0
1.340741963E1,5.590075254E-1,3.085257530E0,2.884221077E0,4.260285749E0
1.341563283E1,7.832611799E-1,3.979858398E0,3.004981041E0,5.048037441E0
1.342383721E1,1.704759002E0,5.191096306E0,3.342182636E0,6.404987813E0
1.343206321E1,2.960780621E0,6.194868088E0,2.476691723E0,7.299083120E0
1.344029675E1,3.577807426E0,6.797831535E0,7.966508865E-1,7.723074012E0
1.344851444E1,3.357921839E0,6.976335526E0,-1.157608271E0,7.828470690E0
1.345672459E1,3.063657284E0,7.086519241E0,-2.152424812E0,8.014841451E0
1.346493409E1,3.109308004E0,7.084216118E0,-2.194976330E0,8.041880089E0
1.347314383E1,3.680676460E0,6.432031631E0,-1.015293360E0,7.479921839E0
1.348135213E1,4.364418507E0,5.618134499E0,7.146716118E-2,7.114540864E0
1.348957659E1,5.148015499E0,4.964584351E0,1.043976545E0,7.227658568E0
1.349779206E1,5.551641941E0,4.497374535E0,3.314909697E0,7.876276547E0
1.350599798E1,5.441949844E0,4.614849091E0,5.951968193E0,9.291801527E0
1.351422506E1,3.555073023E0,4.768717766E0,7.597254276E0,9.648703844E0
1.352245790E1,1.370816231E0,4.168248177E0,7.092628479E0,8.340192368E0
1.353067382E1,-4.273996353E-1,4.004733086E0,5.160938263E0,6.546437297E0
1.353888098E1,-8.050589561E-1,3.849983215E0,3.200401783E0,5.070804892E0
1.354711279E1,-3.397252560E-1,3.939078331E0,1.404682040E0,4.195817320E0
1.355532013E1,4.342699051E-2,4.595708847E0,-5.137590170E-1,4.624540414E0
1.356352852E1,1.838781834E-1,5.227948189E0,-2.119011879E0,5.644064563E0
1.357175463E1,3.492257595E-1,6.077341080E0,-3.590857267E0,7.067551849E0
1.357996852E1,4.820039272E-1,6.825635910E0,-3.928470612E0,7.890153022E0
1.358817548E1,3.792726994E-1,7.741486549E0,-4.091045380E0,8.764195004E0
1.359640456E1,-9.699583054E-2,8.480636597E0,-4.387796402E0,9.548997986E0
1.360463817E1,-7.453827858E-1,9.467722893E0,-4.394813538E0,1.046459547E1
1.361285140E1,-1.825628519E0,9.734711647E0,-4.125469208E0,1.072926030E1
1.362105663E1,-2.523992538E0,8.843279839E0,-3.214566946E0,9.742052006E0
