"Time (s)","Gyroscope x (rad/s)","Gyroscope y (rad/s)","Gyroscope z (rad/s)","Absolute (rad/s)"
0.000000000E0,-4.581489414E-2,-1.050688252E-1,4.886921961E-3,1.147272616E-1
5.070193000E-3,-3.604105115E-2,-1.014036313E-1,4.276056774E-3,1.077030105E-1
6.894692000E-3,-3.604105115E-2,-1.038470939E-1,3.665191587E-3,1.099845894E-1
9.122078000E-3,-3.237585723E-2,-1.026253626E-1,5.497787148E-3,1.077515050E-1
1.096007700E-2,-3.237585723E-2,-1.044579595E-1,5.497787148E-3,1.094983429E-1
1.324380900E-2,-3.115412779E-2,-1.050688252E-1,6.108652335E-3,1.097604361E-1
1.508746200E-2,-3.115412779E-2,-1.069014147E-1,3.665191587E-3,1.114088227E-1
1.728334700E-2,-3.176499158E-2,-1.062905490E-1,9.773843922E-3,1.113652708E-1
1.918315400E-2,-3.054326214E-2,-1.056796908E-1,8.552113548E-3,1.103368776E-1
2.151492400E-2,-3.176499158E-2,-1.056796908E-1,7.330383174E-3,1.105936086E-1
2.354115400E-2,-2.932153270E-2,-1.007927656E-1,7.330383174E-3,1.052267475E-1
2.546815500E-2,-3.237585723E-2,-9.773843735E-2,7.330383174E-3,1.032217651E-1
2.735323100E-2,-3.359758854E-2,-9.224065393E-2,8.552113548E-3,9.854072681E-2
2.965130900E-2,-3.237585723E-2,-8.246681094E-2,9.162978269E-3,8.906700404E-2
3.152453900E-2,-3.726277873E-2,-7.513642311E-2,1.038470957E-2,8.450940154E-2
3.364338500E-2,-3.665191308E-2,-6.414084882E-2,9.773843922E-3,7.451804643E-2
3.554319200E-2,-3.726277873E-2,-5.742133409E-2,1.038470957E-2,6.923558680E-2
3.781369300E-2,-3.665191308E-2,-4.764748737E-2,1.160643995E-2,6.122381263E-2
3.964661600E-2,-3.970624134E-2,-3.665191308E-2,1.343903504E-2,5.568263640E-2
4.191584700E-2,-3.909537569E-2,-2.565634064E-2,1.343903504E-2,4.865494711E-2
4.391100100E-2,-4.092797264E-2,-2.138028294E-2,1.343903504E-2,4.809181954E-2
4.597811600E-2,-3.970624134E-2,-1.527163107E-2,1.466076635E-2,4.499718199E-2
4.779334600E-2,-3.970624134E-2,-1.343903504E-2,1.710422710E-2,4.527414106E-2
5.002915500E-2,-4.031710699E-2,-9.773843922E-3,1.466076635E-2,4.399926376E-2
5.189900000E-2,-4.092797264E-2,-3.665191587E-3,1.649336144E-2,4.427825139E-2
5.415038500E-2,-4.276056588E-2,0.000000000E0,1.282817032E-2,4.464334159E-2
5.606026900E-2,-4.092797264E-2,9.162978269E-3,1.038470957E-2,4.320765336E-2
5.818900100E-2,-4.031710699E-2,1.221730467E-2,1.038470957E-2,4.338863725E-2
6.008461500E-2,-4.092797264E-2,1.771509275E-2,9.773843922E-3,4.565579351E-2
6.240388500E-2,-4.031710699E-2,2.199114859E-2,1.160643995E-2,4.736865188E-2
6.444296200E-2,-3.726277873E-2,2.809980139E-2,1.099557430E-2,4.794805701E-2
6.635550100E-2,-3.665191308E-2,2.932153270E-2,1.282817032E-2,4.865878097E-2
6.825192300E-2,-3.237585723E-2,2.932153270E-2,1.466076635E-2,4.607479225E-2
7.053846200E-2,-3.298672289E-2,3.543018550E-2,1.649336144E-2,5.114149883E-2
7.231303900E-2,-3.054326214E-2,3.543018550E-2,1.466076635E-2,4.902169904E-2
7.452984700E-2,-2.993239649E-2,3.726277873E-2,1.099557430E-2,4.904452765E-2
7.642719200E-2,-3.054326214E-2,3.909537569E-2,4.276056774E-3,4.979582235E-2
7.870065500E-2,-2.687807009E-2,5.070181563E-2,-1.527163107E-2,5.938288875E-2
8.052273100E-2,-2.809980139E-2,5.436700583E-2,-2.199114859E-2,6.503061415E-2
8.280203900E-2,-3.420845419E-2,6.108652428E-2,-3.054326214E-2,7.638502896E-2
8.479815400E-2,-3.726277873E-2,6.475171447E-2,-3.237585723E-2,8.142171293E-2
8.688057800E-2,-3.909537569E-2,6.047565863E-2,-3.481931984E-2,7.998836616E-2
8.870373100E-2,-4.214970022E-2,5.681046844E-2,-3.176499158E-2,7.754380209E-2
9.093196200E-2,-4.642575979E-2,5.436700583E-2,-2.565634064E-2,7.595637109E-2
9.277815400E-2,-4.948008433E-2,4.642575979E-2,-1.954768784E-2,7.060978698E-2
9.505330800E-2,-5.314527452E-2,4.520402849E-2,-1.771509275E-2,7.198367111E-2
9.690526900E-2,-5.742133409E-2,3.787364438E-2,-1.160643995E-2,6.975909973E-2
9.909192400E-2,-5.742133409E-2,2.748893574E-2,-7.330383174E-3,6.408264753E-2
1.009918080E-1,-5.925392732E-2,1.282817032E-2,-5.497787148E-3,6.087540982E-2
1.033075770E-1,-5.681046844E-2,6.719517522E-3,-2.443460980E-3,5.725863901E-2
1.053453850E-1,-5.803219974E-2,-7.330383174E-3,-3.665191587E-3,5.860805707E-2
1.072589240E-1,-5.803219974E-2,-1.832595654E-2,-4.276056774E-3,6.100706149E-2
1.091592310E-1,-5.436700583E-2,-2.687807009E-2,-6.108652335E-3,6.095504579E-2
1.114408850E-1,-5.375614017E-2,-3.848451003E-2,-1.282817032E-2,6.734494838E-2
1.132047310E-1,-5.070181563E-2,-4.642575979E-2,-1.588249579E-2,7.055691995E-2
1.154322700E-1,-5.070181563E-2,-5.742133409E-2,-2.626720630E-2,8.098055226E-2
1.173234230E-1,-5.314527452E-2,-6.047565863E-2,-3.054326214E-2,8.610816658E-2
1.196020770E-1,-5.314527452E-2,-6.475171447E-2,-3.787364438E-2,9.193268009E-2
1.214428850E-1,-5.497787148E-2,-6.841690838E-2,-4.581489414E-2,9.900729382E-2
1.237036930E-1,-5.803219974E-2,-7.391469181E-2,-5.436700583E-2,1.085674408E-1
1.256755390E-1,-5.986479297E-2,-7.452555746E-2,-5.925392732E-2,1.124672399E-1
1.277453080E-1,-6.414084882E-2,-7.696902007E-2,-6.475171447E-2,1.192940194E-1
1.295756920E-1,-7.269296050E-2,-8.796459436E-2,-7.391469181E-2,1.359610901E-1
1.317967310E-1,-7.880161703E-2,-8.979719132E-2,-7.757988572E-2,1.424495317E-1
1.336423080E-1,-8.307767659E-2,-9.651670605E-2,-8.307767659E-2,1.520502392E-1
1.359188080E-1,-9.224065393E-2,-1.136209369E-1,-9.101892263E-2,1.723441319E-1
1.378258080E-1,-9.834930301E-2,-1.325577646E-1,-9.651670605E-2,1.912057032E-1
1.399584620E-1,-1.001819000E-1,-1.484402567E-1,-9.957103431E-2,2.049031814E-1
1.418698850E-1,-1.014036313E-1,-1.808161139E-1,-1.026253626E-1,2.313204023E-1
1.441745000E-1,-9.957103431E-2,-2.107485086E-1,-1.099557430E-1,2.577199840E-1
1.462320770E-1,-1.014036313E-1,-2.266310006E-1,-1.270599663E-1,2.789059733E-1
1.481251930E-1,-1.014036313E-1,-2.351831198E-1,-1.350012124E-1,2.895153253E-1
1.500275000E-1,-1.026253626E-1,-2.461786866E-1,-1.533271819E-1,3.076444953E-1
1.523085390E-1,-1.026253626E-1,-2.528982162E-1,-1.740965992E-1,3.237268890E-1
1.540805000E-1,-1.032362282E-1,-2.541199327E-1,-1.869247705E-1,3.319269932E-1
1.563000390E-1,-1.007927656E-1,-2.583959997E-1,-2.058615834E-1,3.454079700E-1
1.583353850E-1,-9.590584040E-2,-2.657263875E-1,-2.309070677E-1,3.648650670E-1
1.604310390E-1,-9.285151958E-2,-2.712241709E-1,-2.492330223E-1,3.798697869E-1
1.622272690E-1,-8.857546002E-2,-2.755002379E-1,-2.565633953E-1,3.867438028E-1
1.644985770E-1,-7.696902007E-2,-2.846632004E-1,-2.742784917E-1,4.027233029E-1
1.664957700E-1,-6.230825558E-2,-2.883284092E-1,-2.846632004E-1,4.099374683E-1
1.685660770E-1,-5.192354694E-2,-2.919935882E-1,-2.926044464E-1,4.166217377E-1
1.703884620E-1,-3.726277873E-2,-3.005456924E-1,-3.017674387E-1,4.275275605E-1
1.726189230E-1,-1.649336144E-2,-3.029891551E-1,-3.048217595E-1,4.301055267E-1
1.744626920E-1,-7.330383174E-3,-3.005456924E-1,-3.060434759E-1,4.290035628E-1
1.767419620E-1,1.221730467E-2,-3.017674387E-1,-3.042109013E-1,4.286690122E-1
1.787127310E-1,2.626720630E-2,-2.907718420E-1,-2.944370508E-1,4.146461228E-1
1.807830000E-1,3.359758854E-2,-2.773328125E-1,-2.864958048E-1,4.001526372E-1
1.826882310E-1,3.787364438E-2,-2.693915665E-1,-2.822197378E-1,3.919875118E-1
1.849999620E-1,4.214970022E-2,-2.461786866E-1,-2.748893499E-1,3.714090705E-1
1.870558850E-1,4.520402849E-2,-2.229658216E-1,-2.700024247E-1,3.530700655E-1
1.889515390E-1,4.214970022E-2,-2.034181207E-1,-2.651155293E-1,3.368111829E-1
1.908408460E-1,4.092797264E-2,-1.936442852E-1,-2.620611787E-1,3.284041253E-1
1.931346540E-1,3.237585723E-2,-1.765400618E-1,-2.565633953E-1,3.131123845E-1
1.949089230E-1,2.382374369E-2,-1.667662114E-1,-2.504547536E-1,3.018379096E-1
1.971268460E-1,1.954768784E-2,-1.624901593E-1,-2.467895597E-1,2.961253970E-1
1.990202690E-1,9.773843922E-3,-1.533271819E-1,-2.339613885E-1,2.798976314E-1
2.012971920E-1,-6.108652451E-4,-1.459967941E-1,-2.223549485E-1,2.660021808E-1
2.031555770E-1,-1.099557430E-2,-1.404990107E-1,-2.095267773E-1,2.525120691E-1
2.054003850E-1,-2.076941915E-2,-1.423316002E-1,-2.034181207E-1,2.491356759E-1
2.073956540E-1,-3.237585723E-2,-1.380555481E-1,-1.973094791E-1,2.429785197E-1
2.094653460E-1,-3.848451003E-2,-1.191187203E-1,-2.040289938E-1,2.393703352E-1
2.113009230E-1,-4.153883830E-2,-1.154535338E-1,-2.168571651E-1,2.491626449E-1
2.135181160E-1,-5.131268129E-2,-1.185078546E-1,-2.657263875E-1,2.954447764E-1
2.153596150E-1,-5.375614017E-2,-1.172861308E-1,-2.974913716E-1,3.242635892E-1
2.176414620E-1,-5.253441259E-2,-1.148426682E-1,-3.298672438E-1,3.532153754E-1
2.196083850E-1,-5.009094998E-2,-1.148426682E-1,-3.481931984E-1,3.700492469E-1
2.216806540E-1,-4.398229718E-2,-1.099557430E-1,-3.817907870E-1,3.997360540E-1
2.236361540E-1,-3.665191308E-2,-1.075122803E-1,-4.166100919E-1,4.318173478E-1
2.258971540E-1,-2.748893574E-2,-1.111774743E-1,-4.532620013E-1,4.675066996E-1
2.279372310E-1,-2.260201424E-2,-1.160643995E-1,-4.691445231E-1,4.838164729E-1
2.298482690E-1,-1.343903504E-2,-1.313360333E-1,-5.015203953E-1,5.186062747E-1
2.317480000E-1,-1.099557430E-2,-1.527163088E-1,-5.271766782E-1,5.489612224E-1
2.340328460E-1,-7.330383174E-3,-1.808161139E-1,-5.607742667E-1,5.892503541E-1
2.358265380E-1,-7.330383174E-3,-1.985312104E-1,-5.797111392E-1,6.128077847E-1
2.380248080E-1,-7.941247895E-3,-2.492330223E-1,-6.267477274E-1,6.745315979E-1
2.399428460E-1,-1.649336144E-2,-3.029891551E-1,-6.719517708E-1,7.372880314E-1
2.421959230E-1,-1.649336144E-2,-3.316998184E-1,-6.969972253E-1,7.720763774E-1
2.440202310E-1,-2.076941915E-2,-3.933972120E-1,-7.470881939E-1,8.445907320E-1
2.462992310E-1,-1.527163107E-2,-4.563163519E-1,-8.173376918E-1,9.362151132E-1
2.482997690E-1,-1.832595654E-2,-5.180137157E-1,-8.906415105E-1,1.030493256E0
2.503953080E-1,-1.954768784E-2,-5.491678715E-1,-9.279043078E-1,1.078412661E0
2.522215770E-1,-2.076941915E-2,-6.059783101E-1,-1.003040791E0,1.172063099E0
2.544478080E-1,-1.832595654E-2,-6.548475623E-1,-1.075122833E0,1.258987799E0
2.562935380E-1,-8.552113548E-3,-6.841690540E-1,-1.115439892E0,1.308574257E0
2.585696540E-1,-3.054326167E-3,-7.373143435E-1,-1.194852471E0,1.404034970E0
2.604180380E-1,2.138028294E-2,-7.800748944E-1,-1.279151797E0,1.498400240E0
2.626110770E-1,4.581489414E-2,-8.179485798E-1,-1.369559884E0,1.595880058E0
2.646258460E-1,4.825835302E-2,-8.405506015E-1,-1.413542151E0,1.645282832E0
2.668261920E-1,9.101892263E-2,-8.692612648E-1,-1.506393671E0,1.741585910E0
2.688862310E-1,1.350012124E-1,-8.857545853E-1,-1.598023534E0,1.832065972E0
2.707718850E-1,1.783726513E-1,-8.973610401E-1,-1.689042449E0,1.920921142E0
2.726708460E-1,2.064724565E-1,-9.034696817E-1,-1.739133358E0,1.970652983E0
2.749554610E-1,2.626720667E-1,-9.071348906E-1,-1.841758728E0,2.069774272E0
2.767375770E-1,3.097086847E-1,-9.230173826E-1,-1.943773150E0,2.173967483E0
2.789466920E-1,3.378084898E-1,-9.334021211E-1,-1.995696783E0,2.228936909E0
2.808451920E-1,3.775147200E-1,-9.505063295E-1,-2.099543810E0,2.335393726E0
2.831175000E-1,4.001167417E-1,-9.786061049E-1,-2.205223560E0,2.445562158E0
2.849387310E-1,4.117231667E-1,-1.016479731E0,-2.313957453E0,2.560692504E0
2.872191540E-1,4.227187634E-1,-1.018312335E0,-2.367102861E0,2.611288402E0
2.891688850E-1,4.251621962E-1,-1.026864529E0,-2.469728231E0,2.708278270E0
2.912576920E-1,4.269948006E-1,-1.026253581E0,-2.560747147E0,2.791585020E0
2.930928460E-1,4.257730842E-1,-1.023199320E0,-2.604729414E0,2.830695124E0
2.953099610E-1,4.245513380E-1,-1.017090678E0,-2.687807083E0,2.904999863E0
2.971573460E-1,4.245513380E-1,-1.001208186E0,-2.762943506E0,2.969262280E0
2.994322310E-1,4.141666293E-1,-1.001208186E0,-2.827084303E0,3.027599294E0
3.012836920E-1,4.068362415E-1,-1.007927656E0,-2.853351593E0,3.053366863E0
3.034713840E-1,3.885102868E-1,-1.026253581E0,-2.888781786E0,3.090177481E0
3.054363460E-1,3.714060783E-1,-1.050688267E0,-2.905275106E0,3.111673465E0
3.076864610E-1,3.219259977E-1,-1.073901057E0,-2.915659904E0,3.123775361E0
3.097044610E-1,3.274237812E-1,-1.074512005E0,-2.915048838E0,3.123986573E0
3.116568070E-1,2.755002379E-1,-1.085507512E0,-2.904053450E0,3.112515603E0
3.136496540E-1,2.461786866E-1,-1.090394497E0,-2.884505749E0,3.093531561E0
3.158388840E-1,2.211332172E-1,-1.083674908E0,-2.860682011E0,3.067043001E0
3.176267690E-1,1.991420686E-1,-1.076344609E0,-2.848464727E0,3.051544950E0
3.198296150E-1,1.649336219E-1,-1.059851170E0,-2.813034534E0,3.010589792E0
3.217228460E-1,1.123992056E-1,-1.043357849E0,-2.779436827E0,2.970942318E0
3.240000000E-1,9.957103431E-2,-1.034805775E0,-2.762332678E0,2.951477461E0
3.258215380E-1,4.764748737E-2,-1.023199320E0,-2.743395805E0,2.928383116E0
3.281021540E-1,0.000000000E0,-1.003040791E0,-2.742174149E0,2.919864704E0
3.300840380E-1,-6.536258012E-2,-9.706648588E-1,-2.773328304E0,2.939015553E0
3.321646920E-1,-7.330382615E-2,-9.492846131E-1,-2.794097662E0,2.951863220E0
3.339898080E-1,-1.117883399E-1,-9.004153609E-1,-2.846632004E0,2.987734630E0
3.362165770E-1,-9.651670605E-2,-8.167268038E-1,-2.900999069E0,3.015319841E0
3.382044230E-1,-9.773843735E-2,-7.635815740E-1,-2.929098845E0,3.028568913E0
3.403394610E-1,-5.192354694E-2,-6.334672570E-1,-2.979800701E0,3.046832624E0
3.421798850E-1,-9.773843922E-3,-5.002986193E-1,-3.025615454E0,3.066715362E0
3.443785380E-1,5.375614017E-2,-3.555235863E-1,-3.064710855E0,3.085731578E0
3.464135770E-1,9.407325089E-2,-2.895501256E-1,-3.079982519E0,3.094992952E0
3.485936530E-1,1.734857261E-1,-1.600466967E-1,-3.120299578E0,3.129214230E0
3.506500000E-1,2.559525371E-1,-4.276056588E-2,-3.155729771E0,3.166381302E0
3.525626530E-1,3.353650272E-1,4.398229718E-2,-3.185662270E0,3.203568048E0
3.545201920E-1,3.787364662E-1,8.124507964E-2,-3.205209970E0,3.228531095E0
3.567446530E-1,4.532620013E-1,1.295034289E-1,-3.238196611E0,3.272328662E0
3.585588080E-1,5.424483418E-1,1.765400618E-1,-3.267518282E0,3.316940204E0
3.607360000E-1,5.962044597E-1,1.991420686E-1,-3.283400774E0,3.343028263E0
3.626341150E-1,6.817256212E-1,2.131919712E-1,-3.309667826E0,3.385867947E0
3.649061150E-1,7.599163651E-1,1.991420686E-1,-3.338378668E0,3.429563030E0
3.667402310E-1,8.423831463E-1,1.685988009E-1,-3.364645720E0,3.472589198E0
3.690083070E-1,8.869763613E-1,1.435533315E-1,-3.378084898E0,3.495538900E0
3.709819610E-1,9.578366876E-1,7.147123665E-2,-3.401297569E0,3.534315268E0
3.730701530E-1,1.037249207E0,-1.710422710E-2,-3.422677994E0,3.576437211E0
3.749315000E-1,1.075733662E0,-6.352998316E-2,-3.431840897E0,3.597050307E0
3.771238460E-1,1.139874578E0,-1.771509200E-1,-3.455664635E0,3.643118797E0
3.790306540E-1,1.191187263E0,-2.974913716E-1,-3.478877544E0,3.689175678E0
3.812470380E-1,1.257160664E0,-4.117231667E-1,-3.504534006E0,3.745894753E0
3.831006920E-1,1.279151797E0,-4.654793143E-1,-3.520416498E0,3.774418185E0
3.852861920E-1,1.337184072E0,-5.699372888E-1,-3.558900833E0,3.844302914E0
3.872750380E-1,1.391551018E0,-6.737843752E-1,-3.603494167E0,3.921169447E0
3.895014230E-1,1.437976837E0,-7.556403279E-1,-3.649308920E0,3.994524413E0
3.915430000E-1,1.459357023E0,-7.880161405E-1,-3.673132658E0,4.030210402E0
3.934724610E-1,1.515556693E0,-8.405506015E-1,-3.718336821E0,4.102373230E0
3.953891150E-1,1.565036774E0,-8.802568316E-1,-3.773925543E0,4.179318867E0
3.976554610E-1,1.626734138E0,-8.998045325E-1,-3.828292608E0,4.255788581E0
3.995774610E-1,1.637729764E0,-9.126327038E-1,-3.855781317E0,4.287435923E0
4.016470760E-1,1.710422635E0,-9.175195694E-1,-3.916257143E0,4.370864647E0
4.036821530E-1,1.755626678E0,-9.370672703E-1,-3.970624208E0,4.441416070E0
4.057777300E-1,1.763567924E0,-9.810495973E-1,-3.992615223E0,4.473656944E0
4.075666540E-1,1.767233133E0,-1.069014192E0,-4.035375595E0,4.533228483E0
4.098457690E-1,1.766622305E0,-1.149648428E0,-4.073860168E0,4.586827068E0
4.118431920E-1,1.782504797E0,-1.204626322E0,-4.111733913E0,4.640560710E0
4.139319990E-1,1.781283021E0,-1.232115149E0,-4.131281853E0,4.664607882E0
4.157675770E-1,1.797776461E0,-1.287703991E0,-4.163657665E0,4.714469952E0
4.179839610E-1,1.808771968E0,-1.344514370E0,-4.195422649E0,4.762451693E0
4.199709220E-1,1.833206654E0,-1.370781660E0,-4.210694313E0,4.792664769E0
4.221060380E-1,1.835650086E0,-1.431257248E0,-4.229630947E0,4.827824199E0
4.240763840E-1,1.872912884E0,-1.487456918E0,-4.244902611E0,4.872322745E0
4.261463840E-1,1.906510472E0,-1.547321677E0,-4.254065514E0,4.911828575E0
4.281046540E-1,1.921782017E0,-1.574199796E0,-4.254065514E0,4.926299271E0
4.303620380E-1,1.936442852E0,-1.632231951E0,-4.246735096E0,4.944567831E0
4.323869230E-1,1.949270964E0,-1.662775159E0,-4.219857216E0,4.936767509E0
4.343332690E-1,1.952325344E0,-1.663386106E0,-4.200920105E0,4.922007448E0
4.362308080E-1,1.933388472E0,-1.681712031E0,-4.143498898E0,4.871830195E0
4.385169610E-1,1.949270964E0,-1.717142224E0,-4.079358101E0,4.836258598E0
4.403236540E-1,1.944384098E0,-1.783726573E0,-3.999334812E0,4.791345213E0
4.425091150E-1,1.957212210E0,-1.827708840E0,-3.948632956E0,4.771048256E0
4.444048080E-1,1.950492740E0,-1.902234316E0,-3.822794676E0,4.694323855E0
4.466796150E-1,1.904066920E0,-1.908343077E0,-3.655417681E0,4.541951404E0
4.485041150E-1,1.908953905E0,-1.944994926E0,-3.478877544E0,4.419241931E0
4.507831150E-1,1.917505980E0,-1.973705649E0,-3.384193420E0,4.361778110E0
4.527330770E-1,1.923614621E0,-2.032348633E0,-3.175277472E0,4.232389538E0
4.548911920E-1,1.951714516E0,-2.080606937E0,-2.930320501E0,4.089607930E0
4.567883840E-1,1.974927306E0,-2.081218004E0,-2.790432453E0,4.002289285E0
4.589793070E-1,2.036624670E0,-2.072665691E0,-2.466673851E0,3.811595860E0
4.608596150E-1,2.092213392E0,-2.050063848E0,-2.108706713E0,3.609260681E0
4.631036910E-1,2.186286688E0,-1.995696783E0,-1.712866187E0,3.420024226E0
4.650738450E-1,2.210110426E0,-1.971262097E0,-1.503950238E0,3.321494945E0
4.671436910E-1,2.290744781E0,-1.899180055E0,-1.080009699E0,3.165567482E0
4.691255380E-1,2.363437653E0,-1.787391663E0,-6.426302195E-1,3.032091702E0
4.713602680E-1,2.431854486E0,-1.666440368E0,-2.193006277E-1,2.956185466E0
4.734199990E-1,2.469728231E0,-1.610240817E0,-1.832595654E-2,2.948350194E0
4.753332680E-1,2.548529863E0,-1.534493446E0,3.524692357E-1,2.995648371E0
4.772541920E-1,2.609005451E0,-1.547321677E0,6.548475623E-1,3.103214325E0
4.795178450E-1,2.636494398E0,-1.616349459E0,8.216137290E-1,3.199802713E0
4.813020770E-1,2.654209375E0,-1.675603390E0,8.246681094E-1,3.245389286E0
4.835091530E-1,2.629163980E0,-1.814880610E0,6.340781450E-1,3.257046201E0
4.854119610E-1,2.555860281E0,-1.947438359E0,1.826487035E-1,3.218431060E0
4.876786530E-1,2.527149439E0,-1.966986060E0,-1.356120855E-1,3.205293916E0
4.895134610E-1,2.461176157E0,-1.930334210E0,-8.002334833E-1,3.228614543E0
4.917811140E-1,2.426356792E0,-1.845423937E0,-1.415985584E0,3.361221797E0
4.937663070E-1,2.335337877E0,-1.734857321E0,-1.841758728E0,3.443197371E0
4.958468070E-1,2.317622662E0,-1.670716405E0,-1.963931799E0,3.466943354E0
4.976726540E-1,2.213775635E0,-1.493565559E0,-1.992642403E0,3.331991054E0
4.998990760E-1,2.039679050E0,-1.213789225E0,-1.744020224E0,2.945366098E0
5.018185770E-1,1.905899525E0,-1.051909924E0,-1.535715222E0,2.664092478E0
5.040226530E-1,1.640784025E0,-7.238753438E-1,-1.039081812E0,2.072645349E0
5.059407690E-1,1.328631878E0,-4.043927789E-1,-4.966334403E-1,1.474937612E0
5.080628450E-1,1.030529618E0,-1.105666086E-1,2.199114859E-2,1.036677327E0
5.099656150E-1,8.723155856E-1,2.871066704E-2,2.547308207E-1,9.092010637E-1
5.122794990E-1,5.510004759E-1,2.706133127E-1,6.359107494E-1,8.838640001E-1
5.143379610E-1,2.510656118E-1,4.905247986E-1,9.053022861E-1,1.059821093E0
5.162517300E-1,-6.719517522E-3,6.414085031E-1,1.089172721E0,1.264020267E0
5.181523840E-1,-1.282816976E-1,6.890559793E-1,1.166141748E0,1.360566395E0
5.204353070E-1,-3.176499307E-1,7.495316267E-1,1.307862520E0,1.540520532E0
5.222098840E-1,-4.868595898E-1,7.690793276E-1,1.461800575E0,1.722026769E0
5.244267680E-1,-5.674937963E-1,7.617489696E-1,1.557706356E0,1.824488913E0
5.263278460E-1,-7.122688890E-1,7.305948138E-1,1.761124492E0,2.035351377E0
5.285981140E-1,-8.429940343E-1,6.927211881E-1,1.978592515E0,2.259497716E0
5.304713840E-1,-9.615018964E-1,6.383541822E-1,2.194838762E0,2.479778045E0
5.327002680E-1,-1.027475357E0,6.084218025E-1,2.305405378E0,2.596300572E0
5.346648460E-1,-1.134376764E0,5.619960427E-1,2.503325701E0,2.805225438E0
5.367624990E-1,-1.249830246E0,5.418374538E-1,2.670091867E0,2.997507973E0
5.385930380E-1,-1.301142931E0,5.296201706E-1,2.736065388E0,3.075633960E0
5.408126140E-1,-1.447750688E0,4.624249935E-1,2.841134310E0,3.222089864E0
5.426677310E-1,-1.539991260E0,3.842342496E-1,2.930320501E0,3.332564670E0
5.449342680E-1,-1.547321677E0,3.451388776E-1,3.021339417E0,3.412010710E0
5.467684610E-1,-1.536936998E0,3.274237812E-1,3.068376064E0,3.447363245E0
5.489726910E-1,-1.499674201E0,3.109304011E-1,3.153897285E0,3.506104464E0
5.508629610E-1,-1.494176388E0,2.974913716E-1,3.210707664E0,3.553830033E0
5.531868830E-1,-1.491732955E0,3.103195429E-1,3.216205597E0,3.558868341E0
5.552126150E-1,-1.498452425E0,3.152064681E-1,3.193603516E0,3.541725314E0
5.571599990E-1,-1.521665335E0,3.158173263E-1,3.112358332E0,3.478790071E0
5.590679230E-1,-1.551597714E0,3.078760803E-1,2.989574432E0,3.382277108E0
5.613414220E-1,-1.591914773E0,2.913827300E-1,2.839301586E0,3.268138620E0
5.631121150E-1,-1.612684250E0,2.803871334E-1,2.758056641E0,3.207217465E0
5.653314600E-1,-1.642616630E0,2.467895597E-1,2.575407982E0,3.064607765E0
5.672086920E-1,-1.648114443E0,1.942551434E-1,2.365881205E0,2.889880647E0
5.694999600E-1,-1.651779652E0,1.557706445E-1,2.257757902E0,2.801805000E0
5.713618460E-1,-1.621847272E0,6.597344577E-2,2.020131350E0,2.591461313E0
5.736014600E-1,-1.583362699E0,-3.848451003E-2,1.781283021E0,2.383587148E0
5.755980760E-1,-1.513113260E0,-1.466076523E-1,1.539991260E0,2.163926667E0
5.776654990E-1,-1.477072120E0,-1.905899495E-1,1.421483397E0,2.058805874E0
5.794897690E-1,-1.390940189E0,-2.730567753E-1,1.197906733E0,1.855870457E0
5.817167300E-1,-1.307862520E0,-3.274237812E-1,9.816604257E-1,1.667743354E0
5.835510000E-1,-1.263269305E0,-3.536909819E-1,8.778133392E-1,1.578449526E0
5.858386530E-1,-1.172861218E0,-3.836233616E-1,6.774495840E-1,1.407731601E0
5.877610770E-1,-1.080009699E0,-3.952298164E-1,4.899139404E-1,1.250057289E0
5.898778450E-1,-9.798278809E-1,-3.854559660E-1,3.262020350E-1,1.102291588E0
5.917453840E-1,-9.309586287E-1,-3.756821156E-1,2.535090744E-1,1.035416762E0
5.940940370E-1,-8.289441466E-1,-3.463605940E-1,1.154535338E-1,9.057834056E-1
5.961519600E-1,-7.348709106E-1,-3.158173263E-1,-6.108652451E-4,7.998601203E-1
5.980659990E-1,-6.469063163E-1,-2.602286041E-1,-8.674286306E-2,7.026599695E-1
5.999566920E-1,-6.078109145E-1,-2.223549485E-1,-1.209513173E-1,6.584110054E-1
6.022487680E-1,-5.229006410E-1,-1.411098689E-1,-1.759291887E-1,5.694630408E-1
6.040729230E-1,-4.324925840E-1,-4.642575979E-2,-2.125810981E-1,4.841445132E-1
6.062406520E-1,-3.897320330E-1,4.886921961E-3,-2.254092693E-1,4.502491291E-1
6.081445380E-1,-2.956587672E-1,9.834930301E-2,-2.437352389E-1,3.955926677E-1
6.104105370E-1,-2.021963894E-1,1.875356287E-1,-2.486221492E-1,3.713030636E-1
6.122435770E-1,-1.056796908E-1,2.687807083E-1,-2.474004179E-1,3.802870403E-1
6.145138830E-1,-5.986479297E-2,3.054326177E-1,-2.437352389E-1,3.953223293E-1
6.164726540E-1,3.970624134E-2,3.671300113E-1,-2.315179259E-1,4.358458223E-1
6.185528830E-1,1.276708394E-1,4.153883755E-1,-2.174680233E-1,4.859420613E-1
6.203969230E-1,1.716531366E-1,4.294382632E-1,-2.083050460E-1,5.072208724E-1
6.226052680E-1,2.516764700E-1,4.550946057E-1,-1.893682331E-1,5.534550329E-1
6.244435380E-1,3.341432810E-1,4.715879560E-1,-1.637118906E-1,6.007066801E-1
6.267279600E-1,4.129449129E-1,4.783074856E-1,-1.356120855E-1,6.462911028E-1
6.285575380E-1,4.495968223E-1,4.721988440E-1,-1.227839142E-1,6.634643475E-1
6.307674220E-1,5.216789246E-1,4.502076805E-1,-9.834930301E-2,6.960664058E-1
6.327461920E-1,5.937610269E-1,4.190535545E-1,-8.002334833E-2,7.311373160E-1
6.349835370E-1,6.591235995E-1,3.652974069E-1,-6.597344577E-2,7.564645468E-1
6.370156150E-1,6.878342628E-1,3.341432810E-1,-6.291911751E-2,7.672851626E-1
6.389585370E-1,7.525860071E-1,2.583959997E-1,-5.314527452E-2,7.974826713E-1
6.408621540E-1,8.045095205E-1,1.710422635E-1,-4.153883830E-2,8.235390092E-1
6.431419600E-1,8.497135639E-1,7.757988572E-2,-2.993239649E-2,8.537726441E-1
6.450640370E-1,8.710938692E-1,2.748893574E-2,-2.748893574E-2,8.719609006E-1
6.471334600E-1,9.101892114E-1,-8.735372871E-2,-2.809980139E-2,9.148030789E-1
6.491685750E-1,9.443976879E-1,-2.034181207E-1,-2.871066704E-2,9.664834335E-1
6.512637680E-1,9.596692920E-1,-2.657263875E-1,-3.481931984E-2,9.963874989E-1
6.530766150E-1,9.883799553E-1,-3.964515328E-1,-4.276056588E-2,1.065784791E0
6.553307290E-1,9.975429177E-1,-5.149593949E-1,-5.253441259E-2,1.123848262E0
6.573118840E-1,1.014647126E0,-6.163630486E-1,-6.536258012E-2,1.188984636E0
6.593984980E-1,1.011592865E0,-6.646214128E-1,-7.086037099E-2,1.212461521E0
6.613330370E-1,1.022588372E0,-7.440338731E-1,-9.162978828E-2,1.267939037E0
6.634503060E-1,1.023199320E0,-8.069530129E-1,-1.007927656E-1,1.307007726E0
6.653404230E-1,1.021977544E0,-8.429940343E-1,-1.093448773E-1,1.329298064E0
6.675714600E-1,1.021977544E0,-8.863654733E-1,-1.301143020E-1,1.359048043E0
6.694545000E-1,1.010371089E0,-9.266825914E-1,-1.496619880E-1,1.379126199E0
6.716104210E-1,1.001208186E0,-9.560040832E-1,-1.692096740E-1,1.394630257E0
6.735166920E-1,9.920451641E-1,-9.596692920E-1,-1.808161139E-1,1.392053600E0
6.758253830E-1,9.810495973E-1,-9.584475756E-1,-1.985312104E-1,1.385819147E0
6.778831910E-1,9.682214260E-1,-9.474520087E-1,-2.119702399E-1,1.371148942E0
6.797725370E-1,9.651671052E-1,-9.388998747E-1,-2.229658216E-1,1.364842216E0
6.817728060E-1,9.486737251E-1,-9.199630618E-1,-2.693915665E-1,1.348660702E0
6.839548060E-1,9.303477407E-1,-8.894197941E-1,-3.341432810E-1,1.329761716E0
6.858569610E-1,9.059131742E-1,-8.411614299E-1,-3.958406746E-1,1.298045095E0
6.879464980E-1,8.979719281E-1,-8.069530129E-1,-4.245513380E-1,1.279754112E0
6.899815370E-1,8.613200188E-1,-7.470881939E-1,-4.795292318E-1,1.236916015E0
6.921163440E-1,8.338310719E-1,-6.756169796E-1,-5.290092826E-1,1.196487936E0
6.940857290E-1,8.063421249E-1,-5.962044597E-1,-5.656611919E-1,1.151355707E0
6.962179980E-1,7.874053121E-1,-5.571091175E-1,-5.803219676E-1,1.125678142E0
6.982130750E-1,7.501425147E-1,-4.679227769E-1,-6.090326309E-1,1.073585704E0
7.002794600E-1,7.104362845E-1,-3.842342496E-1,-6.291912198E-1,1.023834588E0
7.021331920E-1,6.884451509E-1,-3.433062732E-1,-6.322455406E-1,9.957662108E-1
7.043306520E-1,6.426302195E-1,-2.590068579E-1,-6.291912198E-1,9.359165254E-1
7.062199230E-1,6.053674817E-1,-1.771509200E-1,-6.181956530E-1,8.831863347E-1
7.084527670E-1,5.448917747E-1,-1.093448773E-1,-5.962044597E-1,8.150601855E-1
7.102690770E-1,5.283984542E-1,-8.491026610E-2,-5.845980644E-1,7.925714962E-1
7.124909980E-1,4.715879560E-1,-3.970624134E-2,-5.558874011E-1,7.300565653E-1
7.143808070E-1,4.172209501E-1,-3.665191587E-3,-5.198463202E-1,6.665785411E-1
7.167056520E-1,3.646865487E-1,1.282817032E-2,-4.795292318E-1,6.025853673E-1
7.187626910E-1,3.384193480E-1,1.893682219E-2,-4.605923891E-1,5.718667740E-1
7.206518830E-1,2.809980214E-1,2.871066704E-2,-4.135557711E-1,5.008119070E-1
7.225333070E-1,2.254092693E-1,2.076941915E-2,-3.671300113E-1,4.313063328E-1
7.248336910E-1,1.979203373E-1,1.893682219E-2,-3.433062732E-1,3.967244137E-1
7.267072300E-1,1.386664063E-1,7.941247895E-3,-2.950479090E-1,3.261053576E-1
7.288243830E-1,8.063421398E-2,-1.588249579E-2,-2.498438805E-1,2.630134878E-1
7.308160380E-1,9.773843922E-3,-3.909537569E-2,-2.064724565E-1,2.103683714E-1
7.329935750E-1,-1.710422710E-2,-5.070181563E-2,-1.857030392E-1,1.932584990E-1
7.349635750E-1,-8.552113175E-2,-6.719517708E-2,-1.423316002E-1,1.791293952E-1
7.370960750E-1,-1.459967941E-1,-8.491026610E-2,-1.007927656E-1,1.966824821E-1
7.390946140E-1,-1.826487035E-1,-8.857546002E-2,-8.124507964E-2,2.186479452E-1
7.411934980E-1,-2.474004179E-1,-9.346238524E-2,-4.092797264E-2,2.676140564E-1
7.430621150E-1,-3.072652221E-1,-9.285151958E-2,-1.038470957E-2,3.211559801E-1
7.452447290E-1,-3.628539443E-1,-9.285151958E-2,1.588249579E-2,3.748821725E-1
7.470969230E-1,-3.860668242E-1,-9.040805697E-2,3.054326214E-2,3.976859318E-1
7.493677290E-1,-4.306600094E-1,-9.162978828E-2,5.497787148E-2,4.437190870E-1
7.512183840E-1,-4.648684561E-1,-9.834930301E-2,7.635815442E-2,4.812544386E-1
7.534066520E-1,-4.935791194E-1,-1.069014147E-1,9.468411654E-2,5.138222860E-1
7.554419980E-1,-5.045747161E-1,-1.154535338E-1,1.050688252E-1,5.281710146E-1
7.576228060E-1,-5.241223574E-1,-1.331686229E-1,1.185078546E-1,5.536083807E-1
7.596805750E-1,-5.265658498E-1,-1.478293836E-1,1.331686229E-1,5.629023032E-1
7.615698830E-1,-5.296201706E-1,-1.533271819E-1,1.380555481E-1,5.683890254E-1
7.634787300E-1,-5.259549618E-1,-1.649336219E-1,1.459967941E-1,5.702164373E-1
7.657523440E-1,-5.235115290E-1,-1.728748679E-1,1.514945775E-1,5.717522610E-1
7.676049230E-1,-5.143485069E-1,-1.747074574E-1,1.539380401E-1,5.646007461E-1
7.697437670E-1,-5.064072609E-1,-1.740965992E-1,1.527163088E-1,5.568484630E-1
7.716610380E-1,-4.880813360E-1,-1.722639948E-1,1.466076523E-1,5.379517434E-1
7.739140360E-1,-4.648684561E-1,-1.631010175E-1,1.380555481E-1,5.116287304E-1
7.758840360E-1,-4.550946057E-1,-1.569923609E-1,1.288925707E-1,4.983683340E-1
7.780170360E-1,-4.288274050E-1,-1.368338168E-1,1.123992056E-1,4.639504479E-1
7.799895750E-1,-4.013384581E-1,-1.117883399E-1,9.407325089E-2,4.271053352E-1
7.820624600E-1,-3.671300113E-1,-7.941248268E-2,7.757988572E-2,3.835484667E-1
7.839201530E-1,-3.524692357E-1,-6.414084882E-2,6.780604273E-2,3.646179782E-1
7.861151900E-1,-3.207042515E-1,-2.932153270E-2,4.642575979E-2,3.253710503E-1
7.881032670E-1,-2.907718420E-1,3.665191587E-3,2.565634064E-2,2.919245545E-1
7.902379210E-1,-2.614503205E-1,2.687807009E-2,5.497787148E-3,2.628857668E-1
7.920531150E-1,-2.461786866E-1,3.787364438E-2,-4.276056774E-3,2.491117086E-1
7.942774590E-1,-2.193006277E-1,5.009094998E-2,-2.076941915E-2,2.259053726E-1
7.962116920E-1,-1.918116808E-1,5.436700583E-2,-3.359758854E-2,2.021788569E-1
7.984929210E-1,-1.661553532E-1,5.558873713E-2,-4.398229718E-2,1.806437144E-1
8.005506900E-1,-1.514945775E-1,5.497787148E-2,-4.886921868E-2,1.684083546E-1
8.024417290E-1,-1.258382350E-1,5.436700583E-2,-5.131268129E-2,1.463694776E-1
8.043525760E-1,-9.224065393E-2,4.948008433E-2,-5.375614017E-2,1.176704703E-1
8.066243820E-1,-7.880161703E-2,4.581489414E-2,-5.436700583E-2,1.061342108E-1
8.085470750E-1,-5.253441259E-2,3.481931984E-2,-6.536258012E-2,9.079931950E-2
8.106163820E-1,-3.543018550E-2,2.443460934E-2,-7.880161703E-2,8.978888029E-2
8.126525360E-1,-2.321287990E-2,1.832595654E-2,-8.735372871E-2,9.222446745E-2
8.147879210E-1,-7.330383174E-3,4.886921961E-3,-9.529497474E-2,9.570135179E-2
8.166541150E-1,9.162978269E-3,-8.552113548E-3,-9.834930301E-2,9.914476395E-2
8.188916130E-1,2.565634064E-2,-2.015855350E-2,-9.957103431E-2,1.047807519E-1
8.208888820E-1,3.543018550E-2,-2.993239649E-2,-9.896016866E-2,1.092902621E-1
8.229585360E-1,5.131268129E-2,-4.214970022E-2,-9.834930301E-2,1.186683357E-1
8.248294230E-1,6.108652428E-2,-5.619960278E-2,-9.651670605E-2,1.273005630E-1
8.270106900E-1,7.147123665E-2,-7.269296050E-2,-8.979719132E-2,1.358526398E-1
8.288772690E-1,7.208210230E-2,-7.757988572E-2,-8.796459436E-2,1.376671275E-1
8.311341130E-1,7.696902007E-2,-8.979719132E-2,-8.613199741E-2,1.463095574E-1
8.329866150E-1,8.185594529E-2,-1.032362282E-1,-8.552113175E-2,1.570731631E-1
8.351733820E-1,8.552113175E-2,-1.081231460E-1,-8.185594529E-2,1.603273977E-1
8.370985760E-1,8.735372871E-2,-1.178969890E-1,-7.757988572E-2,1.659789523E-1
8.393889210E-1,8.979719132E-2,-1.258382350E-1,-7.147123665E-2,1.703142232E-1
8.414472670E-1,9.101892263E-2,-1.380555481E-1,-6.658431143E-2,1.782617434E-1
8.433389210E-1,9.346238524E-2,-1.368338168E-1,-5.925392732E-2,1.759822115E-1
8.452541150E-1,9.651670605E-2,-1.374446750E-1,-5.497787148E-2,1.767175135E-1
8.475204980E-1,9.407325089E-2,-1.343903542E-1,-5.253441259E-2,1.722510039E-1
8.493003460E-1,9.590584040E-2,-1.325577646E-1,-5.009094998E-2,1.711098900E-1
8.515109590E-1,9.712757170E-2,-1.319468915E-1,-4.948008433E-2,1.711491341E-1
8.534323460E-1,9.712757170E-2,-1.276708394E-1,-5.070181563E-2,1.682387664E-1
8.556796900E-1,9.712757170E-2,-1.227839142E-1,-5.131268129E-2,1.647502535E-1
8.576076920E-1,9.712757170E-2,-1.197295859E-1,-5.070181563E-2,1.622948337E-1
8.597809590E-1,9.346238524E-2,-1.166752651E-1,-5.864306539E-2,1.605843830E-1
8.617754980E-1,9.468411654E-2,-1.136209369E-1,-6.169738993E-2,1.602540706E-1
8.638414590E-1,9.346238524E-2,-1.087340117E-1,-6.230825558E-2,1.563349656E-1
8.657748440E-1,9.285151958E-2,-1.062905490E-1,-6.475171447E-2,1.552799731E-1
8.678909590E-1,9.346238524E-2,-1.062905490E-1,-6.902777404E-2,1.574729560E-1
8.698062690E-1,9.224065393E-2,-1.075122803E-1,-6.963863969E-2,1.578504634E-1
8.720116900E-1,8.735372871E-2,-1.111774743E-1,-7.208210230E-2,1.587039198E-1
8.739808050E-1,8.918632567E-2,-1.136209369E-1,-7.452555746E-2,1.625360781E-1
8.760496130E-1,8.735372871E-2,-1.172861308E-1,-7.391469181E-2,1.638599770E-1
8.779946920E-1,8.552113175E-2,-1.240056455E-1,-7.574728876E-2,1.686087656E-1
8.802629210E-1,8.246681094E-2,-1.233947799E-1,-7.635815442E-2,1.669060045E-1
8.823201510E-1,8.124507964E-2,-1.288925707E-1,-7.208210230E-2,1.685523279E-1
8.842128820E-1,7.819075137E-2,-1.319468915E-1,-7.269296050E-2,1.697293207E-1
8.861498840E-1,7.452555746E-2,-1.362229437E-1,-7.086037099E-2,1.706808169E-1
8.883953820E-1,7.208210230E-2,-1.362229437E-1,-6.841690838E-2,1.686220425E-1
8.903179590E-1,7.024950534E-2,-1.423316002E-1,-7.086037099E-2,1.738230986E-1
8.923874590E-1,7.024950534E-2,-1.411098689E-1,-6.780604273E-2,1.715944274E-1
8.944226900E-1,6.841690838E-2,-1.417207420E-1,-6.841690838E-2,1.715998701E-1
8.965187280E-1,6.475171447E-2,-1.417207420E-1,-6.658431143E-2,1.694432759E-1
8.983425380E-1,6.291911751E-2,-1.368338168E-1,-6.352998316E-2,1.634575404E-1
9.005854210E-1,6.291911751E-2,-1.368338168E-1,-6.414084882E-2,1.636959292E-1
9.025816130E-1,6.047565863E-2,-1.374446750E-1,-6.169738993E-2,1.623419597E-1
9.046488050E-1,6.047565863E-2,-1.319468915E-1,-5.864306539E-2,1.565448709E-1
9.065832670E-1,6.108652428E-2,-1.282816976E-1,-5.742133409E-2,1.532480571E-1
9.087008440E-1,6.291911751E-2,-1.264491081E-1,-5.619960278E-2,1.520085118E-1
9.105469230E-1,6.169738993E-2,-1.227839142E-1,-5.314527452E-2,1.473325413E-1
9.128230740E-1,6.414084882E-2,-1.209513173E-1,-5.070181563E-2,1.459929578E-1
9.147616920E-1,6.780604273E-2,-1.203404516E-1,-4.703662544E-2,1.459175379E-1
9.168616510E-1,7.086037099E-2,-1.191187203E-1,-4.398229718E-2,1.454128748E-1
9.188388070E-1,7.635815442E-2,-1.240056455E-1,-4.398229718E-2,1.521262973E-1
9.210756510E-1,8.124507964E-2,-1.276708394E-1,-3.970624134E-2,1.564518834E-1
9.231337670E-1,8.735372871E-2,-1.295034289E-1,-3.359758854E-2,1.597830091E-1
9.250264970E-1,9.162978828E-2,-1.319468915E-1,-3.420845419E-2,1.642443869E-1
9.269495380E-1,9.285151958E-2,-1.392772794E-1,-2.871066704E-2,1.698348246E-1
9.292078050E-1,9.773843735E-2,-1.429424733E-1,-2.382374369E-2,1.747939460E-1
9.310098460E-1,1.032362282E-1,-1.453859210E-1,-2.199114859E-2,1.796618921E-1
9.331976510E-1,1.087340117E-1,-1.508837193E-1,-1.710422710E-2,1.867659943E-1
9.351051530E-1,1.136209369E-1,-1.576032341E-1,-1.038470957E-2,1.945670550E-1
9.373659970E-1,1.185078546E-1,-1.582140923E-1,-1.038470957E-2,1.979486115E-1
9.392884230E-1,1.191187203E-1,-1.618792862E-1,-9.773843922E-3,2.012205279E-1
9.414666510E-1,1.209513173E-1,-1.631010175E-1,-4.886921961E-3,2.031133798E-1
9.434378820E-1,1.252273768E-1,-1.631010175E-1,-6.108652451E-4,2.056312500E-1
9.455028440E-1,1.307251602E-1,-1.643227488E-1,-6.108652451E-4,2.099795382E-1
9.473408840E-1,1.319468915E-1,-1.594358236E-1,3.665191587E-3,2.069859842E-1
9.495530740E-1,1.368338168E-1,-1.582140923E-1,3.054326167E-3,2.091997163E-1
9.514499230E-1,1.380555481E-1,-1.496619880E-1,6.108652335E-3,2.037041007E-1
9.536740360E-1,1.417207420E-1,-1.508837193E-1,5.497787148E-3,2.070770174E-1
9.555451920E-1,1.441642046E-1,-1.411098689E-1,4.886921961E-3,2.017899774E-1
9.577104970E-1,1.502728462E-1,-1.325577646E-1,5.497787148E-3,2.004587612E-1
9.596614230E-1,1.533271819E-1,-1.166752651E-1,6.108652335E-3,1.927684047E-1
9.619240360E-1,1.582140923E-1,-1.130100712E-1,5.497787148E-3,1.945075856E-1
9.639831900E-1,1.576032341E-1,-1.014036313E-1,2.443460980E-3,1.874231744E-1
9.658761130E-1,1.618792862E-1,-8.613199741E-2,3.054326167E-3,1.833928929E-1
9.678041150E-1,1.606575549E-1,-7.941248268E-2,0.000000000E0,1.792127014E-1
9.700586510E-1,1.643227488E-1,-6.658431143E-2,-1.832595794E-3,1.773098833E-1
9.718649230E-1,1.667662114E-1,-5.497787148E-2,-6.108652335E-3,1.757010280E-1
9.740494200E-1,1.667662114E-1,-4.337143153E-2,-1.099557430E-2,1.726642783E-1
9.760841130E-1,1.655444801E-1,-3.848451003E-2,-1.099557430E-2,1.703142245E-1
9.782186510E-1,1.637118906E-1,-3.176499158E-2,-1.404990070E-2,1.673559008E-1
9.800744990E-1,1.637118906E-1,-2.321287990E-2,-1.404990070E-2,1.659452338E-1
9.823200740E-1,1.631010175E-1,-1.893682219E-2,-1.466076635E-2,1.648498808E-1
9.843180740E-1,1.624901593E-1,-1.588249579E-2,-1.221730467E-2,1.637210068E-1
9.863862660E-1,1.631010175E-1,-1.221730467E-2,-1.160643995E-2,1.639692468E-1
9.883207660E-1,1.649336219E-1,-1.343903504E-2,-7.941247895E-3,1.656706694E-1
9.904368050E-1,1.606575549E-1,-1.343903504E-2,-7.330383174E-3,1.613852289E-1
9.922869610E-1,1.624901593E-1,-1.099557430E-2,-1.832595794E-3,1.628720753E-1
9.945589200E-1,1.606575549E-1,-1.038470957E-2,3.054326167E-3,1.610218030E-1
9.965277660E-1,1.576032341E-1,-9.162978269E-3,9.162978269E-3,1.581350680E-1
9.985963050E-1,1.600466967E-1,-9.773843922E-3,1.099557430E-2,1.607214229E-1
1.000509576E0,1.600466967E-1,-8.552113548E-3,1.893682219E-2,1.613898603E-1
1.002811613E0,1.588249654E-1,-1.099557430E-2,2.871066704E-2,1.617732199E-1
1.004869613E0,1.576032341E-1,-7.941247895E-3,3.543018550E-2,1.617316940E-1
1.006762420E0,1.576032341E-1,-8.552113548E-3,3.848451003E-2,1.624591504E-1
1.008662999E0,1.606575549E-1,-9.773843922E-3,4.398229718E-2,1.668556874E-1
1.010944766E0,1.612684280E-1,-1.221730467E-2,5.070181563E-2,1.694917181E-1
1.012779538E0,1.612684280E-1,-1.282817032E-2,5.314527452E-2,1.702835518E-1
1.014935805E0,1.606575549E-1,-1.832595654E-2,5.925392732E-2,1.722141647E-1
1.016941115E0,1.637118906E-1,-1.710422710E-2,6.597344577E-2,1.773319860E-1
1.019105266E0,1.624901593E-1,-2.015855350E-2,7.757988572E-2,1.811851479E-1
1.020938769E0,1.649336219E-1,-1.954768784E-2,8.002334833E-2,1.843609178E-1
1.023207343E0,1.643227488E-1,-1.954768784E-2,8.857546002E-2,1.876957378E-1
1.025203151E0,1.643227488E-1,-1.893682219E-2,9.834930301E-2,1.924400021E-1
1.027278728E0,1.637118906E-1,-1.771509275E-2,1.032362282E-1,1.943530973E-1
1.029130692E0,1.624901593E-1,-1.527163107E-2,1.160643995E-1,2.002678691E-1
1.031329728E0,1.655444801E-1,-7.941247895E-3,1.313360333E-1,2.114643988E-1
1.033192384E0,1.673770845E-1,-7.330383174E-3,1.380555481E-1,2.170902054E-1
1.035450266E0,1.710422635E-1,-7.330383174E-3,1.398881376E-1,2.210834265E-1
1.037419189E0,1.759291887E-1,-1.466076635E-2,1.368338168E-1,2.233596000E-1
1.039488112E0,1.838704348E-1,-2.076941915E-2,1.227839142E-1,2.220711488E-1
1.041399538E0,1.869247705E-1,-2.382374369E-2,1.148426682E-1,2.206745998E-1
1.043702112E0,1.912008226E-1,-2.871066704E-2,9.224065393E-2,2.142204360E-1
1.045758228E0,1.979203373E-1,-2.626720630E-2,7.452555746E-2,2.131114374E-1
1.047651843E0,1.985312104E-1,-9.162978269E-3,7.147123665E-2,2.112030761E-1
1.049650958E0,2.021963894E-1,-4.886921961E-3,7.086037099E-2,2.143092487E-1
1.051833420E0,2.040289938E-1,1.282817032E-2,6.475171447E-2,2.144415464E-1
1.053755651E0,2.089159191E-1,2.504547499E-2,5.619960278E-2,2.177878151E-1
1.055824189E0,2.089159191E-1,3.848451003E-2,5.192354694E-2,2.186846439E-1
1.057738884E0,2.058615834E-1,4.337143153E-2,5.070181563E-2,2.164041282E-1
1.059993420E0,2.034181207E-1,5.681046844E-2,4.948008433E-2,2.169208149E-1
1.061828538E0,2.015855312E-1,6.780604273E-2,4.520402849E-2,2.174345649E-1
1.064095035E0,1.973094791E-1,7.819075137E-2,4.092797264E-2,2.161479195E-1
1.066092074E0,1.942551434E-1,8.002334833E-2,3.787364438E-2,2.134788279E-1
1.068161266E0,1.893682331E-1,8.429940045E-2,3.115412779E-2,2.096122523E-1
1.070062192E0,1.857030392E-1,9.101892263E-2,2.687807009E-2,2.085485404E-1
1.072211574E0,1.802052408E-1,9.407325089E-2,3.054326214E-2,2.055640927E-1
1.074198574E0,1.747074574E-1,9.346238524E-2,2.687807009E-2,1.999508534E-1
1.076333189E0,1.728748679E-1,8.796459436E-2,1.527163107E-2,1.945680152E-1
1.078302458E0,1.728748679E-1,8.307767659E-2,7.330383174E-3,1.919410191E-1
1.080371843E0,1.679879427E-1,7.208210230E-2,1.832595794E-3,1.828090172E-1
1.082407151E0,1.643227488E-1,6.414084882E-2,-4.886921961E-3,1.764650001E-1
1.084586997E0,1.631010175E-1,5.497787148E-2,-6.719517522E-3,1.722488321E-1
1.086644420E0,1.624901593E-1,4.520402849E-2,-6.108652451E-4,1.686618783E-1
1.088537689E0,1.624901593E-1,4.337143153E-2,0.000000000E0,1.681788718E-1
1.090468961E0,1.606575549E-1,4.398229718E-2,9.773843922E-3,1.668556874E-1
1.092720535E0,1.594358236E-1,3.665191308E-2,1.954768784E-2,1.647581763E-1
1.094560153E0,1.569923609E-1,3.726277873E-2,2.443460934E-2,1.631936463E-1
1.096712420E0,1.551597714E-1,3.848451003E-2,3.420845419E-2,1.634803674E-1
1.098680422E0,1.539380401E-1,3.970624134E-2,4.276056588E-2,1.646267651E-1
1.100881958E0,1.514945775E-1,3.909537569E-2,5.009094998E-2,1.642807313E-1
1.102723038E0,1.508837193E-1,4.031710699E-2,5.436700583E-2,1.653696985E-1
1.104983843E0,1.514945775E-1,3.726277873E-2,6.108652428E-2,1.675430845E-1
1.106955766E0,1.496619880E-1,3.359758854E-2,6.414084882E-2,1.662575024E-1
1.109020997E0,1.496619880E-1,3.298672289E-2,6.841690838E-2,1.678323804E-1
1.110951692E0,1.459967941E-1,2.932153270E-2,6.841690838E-2,1.638770561E-1
1.113073727E0,1.466076523E-1,2.809980139E-2,7.147123665E-2,1.655038979E-1
1.115061227E0,1.447750628E-1,2.687807009E-2,7.330382615E-2,1.644861708E-1
1.117195766E0,1.466076523E-1,2.993239649E-2,7.696902007E-2,1.682675908E-1
1.119059653E0,1.429424733E-1,3.665191308E-2,8.796459436E-2,1.717954693E-1
1.121234189E0,1.404990107E-1,4.276056588E-2,9.162978828E-2,1.731024439E-1
1.123269266E0,1.411098689E-1,4.337143153E-2,9.407325089E-2,1.750510003E-1
1.125448497E0,1.392772794E-1,5.131268129E-2,9.957103431E-2,1.787331606E-1
1.127505727E0,1.386664063E-1,5.742133409E-2,1.014036313E-1,1.811305559E-1
1.129398612E0,1.362229437E-1,6.536258012E-2,1.075122803E-1,1.854396066E-1
1.131300769E0,1.343903542E-1,6.719517708E-2,1.062905490E-1,1.840479283E-1
1.133581497E0,1.301143020E-1,6.963863969E-2,1.038470939E-1,1.804535692E-1
1.135415615E0,1.276708394E-1,6.902777404E-2,1.014036313E-1,1.770518943E-1
1.137571804E0,1.288925707E-1,6.963863969E-2,9.896016866E-2,1.767935234E-1
1.139606766E0,1.240056455E-1,6.108652428E-2,8.491026610E-2,1.622304437E-1
1.141702881E0,1.227839142E-1,4.886921868E-2,7.391469181E-2,1.514182016E-1
1.143508769E0,1.227839142E-1,3.420845419E-2,5.436700583E-2,1.385708456E-1
1.145770804E0,1.191187203E-1,2.626720630E-2,4.581489414E-2,1.303005763E-1
1.147767497E0,1.166752651E-1,1.343903504E-2,2.809980139E-2,1.207614342E-1
1.149834650E0,1.123992056E-1,-6.108652451E-4,1.527163107E-2,1.134335809E-1
1.151759730E0,1.130100712E-1,-6.108652335E-3,1.099557430E-2,1.137079350E-1
1.153885650E0,1.099557430E-1,-1.588249579E-2,6.719517522E-3,1.112999146E-1
1.155761961E0,1.056796908E-1,-1.832595654E-2,6.719517522E-3,1.074671562E-1
1.158007535E0,9.896016866E-2,-9.773843922E-3,1.221730467E-2,1.001893484E-1
1.159881692E0,9.529497474E-2,-3.054326167E-3,1.649336144E-2,9.675997154E-2
1.162047150E0,9.101892263E-2,6.719517522E-3,2.504547499E-2,9.464075237E-2
1.163994076E0,8.246681094E-2,2.382374369E-2,3.359758854E-2,9.217995241E-2
1.166261689E0,7.391469181E-2,3.726277873E-2,4.520402849E-2,9.431490092E-2
1.168318420E0,7.024950534E-2,4.581489414E-2,5.009094998E-2,9.768879565E-2
1.170211150E0,6.169738993E-2,5.253441259E-2,5.558873713E-2,9.826769625E-2
1.172117461E0,5.497787148E-2,6.352998316E-2,6.169738993E-2,1.042362367E-1
1.174393458E0,4.459316283E-2,6.963863969E-2,6.475171447E-2,1.050279717E-1
1.176218076E0,4.092797264E-2,6.536258012E-2,6.230825558E-2,9.914476556E-2
1.178385689E0,3.420845419E-2,6.841690838E-2,6.230825558E-2,9.865804785E-2
1.180313922E0,2.687807009E-2,6.108652428E-2,5.986479297E-2,8.965370900E-2
1.182555843E0,2.443460934E-2,5.986479297E-2,5.742133409E-2,8.647573752E-2
1.184497922E0,1.649336144E-2,5.314527452E-2,5.070181563E-2,7.528031140E-2
1.186658150E0,1.160643995E-2,4.703662544E-2,4.581489414E-2,6.667951789E-2
1.188653727E0,4.276056774E-3,4.092797264E-2,4.153883830E-2,5.847100729E-2
1.190720343E0,6.108652451E-4,4.276056588E-2,4.031710699E-2,5.877336358E-2
1.192562115E0,-3.054326167E-3,4.276056588E-2,3.909537569E-2,5.801933559E-2
1.194772612E0,-6.108652335E-3,3.970624134E-2,3.604105115E-2,5.397090515E-2
1.196650307E0,-7.941247895E-3,4.153883830E-2,3.787364438E-2,5.677104406E-2
1.198895535E0,-1.404990070E-2,4.031710699E-2,3.787364438E-2,5.707260082E-2
1.200751884E0,-1.527163107E-2,3.970624134E-2,3.420845419E-2,5.458962040E-2
1.202934804E0,-1.710422710E-2,4.092797264E-2,3.359758854E-2,5.564576790E-2
1.204871730E0,-2.076941915E-2,4.398229718E-2,3.420845419E-2,5.946452367E-2
1.207150650E0,-2.443460934E-2,4.398229718E-2,3.420845419E-2,6.084168749E-2
1.209208073E0,-3.054326214E-2,4.214970022E-2,3.604105115E-2,6.331228521E-2
1.211101112E0,-3.176499158E-2,4.276056588E-2,3.481931984E-2,6.363855528E-2
1.213025269E0,-3.420845419E-2,4.031710699E-2,3.665191308E-2,6.433545047E-2
1.215284266E0,-3.726277873E-2,4.153883830E-2,3.604105115E-2,6.643001681E-2
1.217088884E0,-4.398229718E-2,4.092797264E-2,3.787364438E-2,7.102080223E-2
1.219275881E0,-4.337143153E-2,4.092797264E-2,3.909537569E-2,7.130658047E-2
1.221153807E0,-4.764748737E-2,4.031710699E-2,4.153883830E-2,7.497484416E-2
1.223445612E0,-5.131268129E-2,4.092797264E-2,4.398229718E-2,7.900969985E-2
1.225282115E0,-5.436700583E-2,4.031710699E-2,4.520402849E-2,8.139191993E-2
1.227548419E0,-5.558873713E-2,3.848451003E-2,4.520402849E-2,8.133000307E-2
1.229546650E0,-5.681046844E-2,3.665191308E-2,4.459316283E-2,8.098976619E-2
1.231614342E0,-5.742133409E-2,3.481931984E-2,4.459316283E-2,8.061107129E-2
1.233483268E0,-5.742133409E-2,3.420845419E-2,4.642575979E-2,8.138045907E-2
1.235665419E0,-5.986479297E-2,4.031710699E-2,4.581489414E-2,8.548840318E-2
1.237653265E0,-5.619960278E-2,3.726277873E-2,4.642575979E-2,8.186733905E-2
1.239789419E0,-5.742133409E-2,3.970624134E-2,4.642575979E-2,8.384000466E-2
1.241758881E0,-5.192354694E-2,4.398229718E-2,4.703662544E-2,8.272207278E-2
1.243828227E0,-5.314527452E-2,4.642575979E-2,4.886921868E-2,8.583689131E-2
1.245764230E0,-4.948008433E-2,4.948008433E-2,4.764748737E-2,8.465719428E-2
1.248044189E0,-5.070181563E-2,5.314527452E-2,4.642575979E-2,8.689329942E-2
1.250102688E0,-4.520402849E-2,5.436700583E-2,4.520402849E-2,8.392007927E-2
1.251995112E0,-4.948008433E-2,5.314527452E-2,4.398229718E-2,8.489488450E-2
1.253894038E0,-4.520402849E-2,5.497787148E-2,4.459316283E-2,8.399119427E-2
1.256179265E0,-4.764748737E-2,5.253441259E-2,4.092797264E-2,8.188556957E-2
1.257999615E0,-4.825835302E-2,5.192354694E-2,4.153883830E-2,8.216080848E-2
1.260171073E0,-4.581489414E-2,4.886921868E-2,3.970624134E-2,7.787034519E-2
1.262074615E0,-4.642575979E-2,4.520402849E-2,4.031710699E-2,7.631660684E-2
1.264341342E0,-4.703662544E-2,4.886921868E-2,4.214970022E-2,7.985763518E-2
1.266192807E0,-4.886921868E-2,4.581489414E-2,4.398229718E-2,8.013518281E-2
1.268443304E0,-5.070181563E-2,4.764748737E-2,4.153883830E-2,8.103352546E-2
1.270415458E0,-5.192354694E-2,4.642575979E-2,4.276056588E-2,8.173048326E-2
1.272482765E0,-5.619960278E-2,4.337143153E-2,4.459316283E-2,8.383332629E-2
1.274340653E0,-5.742133409E-2,4.581489414E-2,4.276056588E-2,8.499811838E-2
1.276534650E0,-6.047565863E-2,4.581489414E-2,4.642575979E-2,8.894751814E-2
1.278411076E0,-6.352998316E-2,4.886921868E-2,4.886921868E-2,9.387470282E-2
1.280657111E0,-6.169738993E-2,5.253441259E-2,5.070181563E-2,9.558821339E-2
1.282505653E0,-6.291911751E-2,5.436700583E-2,5.375614017E-2,9.901671211E-2
1.284696150E0,-6.719517708E-2,5.375614017E-2,5.803219974E-2,1.037913804E-1
1.286730650E0,-6.902777404E-2,5.619960278E-2,5.864306539E-2,1.065937994E-1
1.288912342E0,-7.024950534E-2,5.742133409E-2,6.475171447E-2,1.114674263E-1
1.290970727E0,-7.024950534E-2,5.314527452E-2,6.475171447E-2,1.093261073E-1
1.292864919E0,-7.024950534E-2,5.436700583E-2,6.780604273E-2,1.117516163E-1
1.294816076E0,-6.902777404E-2,5.253441259E-2,6.780604273E-2,1.101015782E-1
1.297048073E0,-7.024950534E-2,5.436700583E-2,7.452555746E-2,1.159518134E-1
1.298920961E0,-7.024950534E-2,5.436700583E-2,7.452555746E-2,1.159518134E-1
1.301040304E0,-7.208210230E-2,5.131268129E-2,7.513642311E-2,1.160788646E-1
1.303026999E0,-7.024950534E-2,5.192354694E-2,7.635815442E-2,1.160242021E-1
1.305211650E0,-7.147123665E-2,4.886921868E-2,7.880161703E-2,1.170727682E-1
1.307070461E0,-6.902777404E-2,4.642575979E-2,8.002334833E-2,1.154292902E-1
1.309315034E0,-6.963863969E-2,4.459316283E-2,8.429940045E-2,1.180867445E-1
1.311312381E0,-6.536258012E-2,4.276056588E-2,8.674286306E-2,1.167264202E-1
1.313379957E0,-5.986479297E-2,4.153883830E-2,8.979719132E-2,1.156408409E-1
1.315219268E0,-5.864306539E-2,4.031710699E-2,9.162978828E-2,1.160193791E-1
1.317432457E0,-5.497787148E-2,4.031710699E-2,9.468411654E-2,1.166752647E-1
1.319285499E0,-5.436700583E-2,4.031710699E-2,9.773843735E-2,1.188866796E-1
1.321555957E0,-5.009094998E-2,3.298672289E-2,9.957103431E-2,1.162394857E-1
1.323517999E0,-4.825835302E-2,3.604105115E-2,1.007927656E-1,1.174180889E-1
1.325595765E0,-4.276056588E-2,3.543018550E-2,1.044579595E-1,1.183014343E-1
1.327557384E0,-4.092797264E-2,3.481931984E-2,1.038470939E-1,1.169260573E-1
1.329811381E0,-3.848451003E-2,3.604105115E-2,1.087340117E-1,1.208432876E-1
1.331868188E0,-3.481931984E-2,3.420845419E-2,1.081231460E-1,1.186305950E-1
1.333761573E0,-3.054326214E-2,3.665191308E-2,1.111774743E-1,1.209821655E-1
1.335675576E0,-2.565634064E-2,3.604105115E-2,1.130100712E-1,1.213609549E-1
1.337943496E0,-2.687807009E-2,3.665191308E-2,1.142318025E-1,1.229418484E-1
1.339745961E0,-2.076941915E-2,3.848451003E-2,1.160643995E-1,1.240297187E-1
1.341935034E0,-1.710422710E-2,4.031710699E-2,1.142318025E-1,1.223393984E-1
1.343875884E0,-1.038470957E-2,4.031710699E-2,1.172861308E-1,1.244562083E-1
1.346104650E0,-9.773843922E-3,4.092797264E-2,1.160643995E-1,1.234567608E-1
1.348074457E0,-6.719517522E-3,4.031710699E-2,1.154535338E-1,1.224750567E-1
1.350207111E0,-4.276056774E-3,4.459316283E-2,1.160643995E-1,1.244097249E-1
1.352202803E0,-1.832595794E-3,4.520402849E-2,1.142318025E-1,1.228644265E-1
1.354269650E0,2.443460980E-3,4.642575979E-2,1.105666086E-1,1.199428890E-1
1.356122038E0,4.886921961E-3,4.886921868E-2,1.111774743E-1,1.215422286E-1
1.358321457E0,7.941247895E-3,5.131268129E-2,1.099557430E-1,1.215990135E-1
1.360197999E0,9.162978269E-3,4.948008433E-2,1.075122803E-1,1.187060628E-1
1.362443880E0,1.099557430E-2,5.436700583E-2,1.069014147E-1,1.204349884E-1
1.364289730E0,1.466076635E-2,5.925392732E-2,1.038470939E-1,1.204582288E-1
1.366482842E0,1.343903504E-2,6.291911751E-2,1.056796908E-1,1.237239672E-1
1.368408884E0,1.954768784E-2,6.475171447E-2,1.026253626E-1,1.229099738E-1
1.370698342E0,2.138028294E-2,6.841690838E-2,1.001819000E-1,1.231844265E-1
1.372756726E0,2.015855350E-2,7.513642311E-2,9.712757170E-2,1.244412092E-1
1.374648996E0,2.015855350E-2,7.635815442E-2,9.773843735E-2,1.256572209E-1
1.376649919E0,2.015855350E-2,7.941248268E-2,9.590584040E-2,1.261373850E-1
1.378832957E0,2.199114859E-2,8.552113175E-2,9.346238524E-2,1.285795164E-1
1.380690076E0,2.382374369E-2,8.857546002E-2,9.468411654E-2,1.318266468E-1
1.382825573E0,2.321287990E-2,8.918632567E-2,9.224065393E-2,1.303893275E-1
1.384861342E0,2.321287990E-2,9.346238524E-2,9.101892263E-2,1.325084885E-1
1.386972342E0,2.443460934E-2,9.896016866E-2,9.651670605E-2,1.403767775E-1
1.388779845E0,2.687807009E-2,1.038470939E-1,9.957103431E-2,1.463592854E-1
1.391024803E0,2.932153270E-2,1.075122803E-1,1.020144969E-1,1.510814359E-1
1.393021611E0,3.237585723E-2,1.117883399E-1,1.050688252E-1,1.567937725E-1
1.395090226E0,3.176499158E-2,1.142318025E-1,1.056796908E-1,1.588273165E-1
1.396940807E0,3.359758854E-2,1.172861308E-1,1.087340117E-1,1.634255785E-1
1.399141034E0,3.237585723E-2,1.172861308E-1,1.117883399E-1,1.652297357E-1
1.401020153E0,3.481931984E-2,1.221730486E-1,1.123992056E-1,1.696237608E-1
1.403263342E0,3.665191308E-2,1.227839142E-1,1.160643995E-1,1.728878167E-1
1.405232957E0,3.726277873E-2,1.282816976E-1,1.276708394E-1,1.847824447E-1
1.407302611E0,3.970624134E-2,1.374446750E-1,1.411098689E-1,2.009468073E-1
1.409301461E0,3.970624134E-2,1.404990107E-1,1.472185254E-1,2.073399427E-1
1.411518072E0,4.092797264E-2,1.404990107E-1,1.484402567E-1,2.084456302E-1
1.413576111E0,4.214970022E-2,1.350012124E-1,1.417207420E-1,2.002166159E-1
1.415471342E0,4.520402849E-2,1.282816976E-1,1.343903542E-1,1.912076500E-1
1.417471765E0,4.642575979E-2,1.264491081E-1,1.282816976E-1,1.860132309E-1
1.419654649E0,4.642575979E-2,1.215621829E-1,1.185078546E-1,1.760023497E-1
1.421576957E0,4.764748737E-2,1.148426682E-1,1.093448773E-1,1.655760359E-1
1.423646149E0,5.192354694E-2,1.093448773E-1,9.896016866E-2,1.563504778E-1
1.425680842E0,5.375614017E-2,1.032362282E-1,8.979719132E-2,1.470067243E-1
1.427815534E0,5.803219974E-2,9.896016866E-2,7.635815442E-2,1.378093572E-1
1.429784726E0,6.230825558E-2,9.529497474E-2,7.269296050E-2,1.350841124E-1
1.431916919E0,7.086037099E-2,8.918632567E-2,5.742133409E-2,1.275641112E-1
1.433875615E0,7.452555746E-2,8.429940045E-2,5.192354694E-2,1.239213555E-1
1.435955226E0,8.002334833E-2,7.513642311E-2,4.031710699E-2,1.169388194E-1
1.437757422E0,8.857546002E-2,6.597344577E-2,2.932153270E-2,1.142709934E-1
1.440007534E0,8.979719132E-2,6.291911751E-2,2.443460934E-2,1.123361075E-1
1.441896153E0,9.346238524E-2,6.169738993E-2,2.260201424E-2,1.142481353E-1
1.444131419E0,9.834930301E-2,6.352998316E-2,2.687807009E-2,1.201294086E-1
1.446008268E0,1.026253626E-1,6.841690838E-2,3.359758854E-2,1.278344099E-1
1.448171380E0,1.001819000E-1,7.086037099E-2,3.787364438E-2,1.284212529E-1
1.450078268E0,9.834930301E-2,7.513642311E-2,4.825835302E-2,1.328417710E-1
1.452387765E0,9.773843735E-2,7.696902007E-2,5.681046844E-2,1.367642552E-1
1.454430999E0,9.651670605E-2,7.574728876E-2,6.169738993E-2,1.373306019E-1
1.456340611E0,9.468411654E-2,7.513642311E-2,6.597344577E-2,1.377064252E-1
1.458207384E0,8.979719132E-2,7.086037099E-2,6.536258012E-2,1.317459473E-1
1.460524226E0,8.368854225E-2,7.024950534E-2,6.597344577E-2,1.276372228E-1
1.462283730E0,8.368854225E-2,6.597344577E-2,6.536258012E-2,1.250141373E-1
1.464515265E0,7.330382615E-2,6.047565863E-2,6.230825558E-2,1.136357115E-1
1.466423114E0,6.841690838E-2,5.742133409E-2,6.291911751E-2,1.092561134E-1
1.468684842E0,6.169738993E-2,5.497787148E-2,6.352998316E-2,1.042362367E-1
1.470493691E0,5.681046844E-2,5.681046844E-2,6.414084882E-2,1.028051902E-1
1.472787841E0,4.886921868E-2,5.375614017E-2,6.108652428E-2,9.491831535E-2
1.474785538E0,4.092797264E-2,5.681046844E-2,6.230825558E-2,9.372751454E-2
1.476853803E0,3.298672289E-2,5.558873713E-2,6.047565863E-2,8.851856793E-2
1.478671422E0,2.809980139E-2,5.742133409E-2,6.047565863E-2,8.800064621E-2
1.480905341E0,2.138028294E-2,6.047565863E-2,5.986479297E-2,8.773947357E-2
1.482746845E0,1.343903504E-2,6.108652428E-2,5.742133409E-2,8.490807217E-2
1.485027534E0,1.282817032E-2,6.291911751E-2,5.925392732E-2,8.737508343E-2
1.486874153E0,1.832595794E-3,6.658431143E-2,5.925392732E-2,8.915075344E-2
1.489067226E0,-1.832595794E-3,6.658431143E-2,5.986479297E-2,8.955792747E-2
1.490967576E0,-7.941247895E-3,6.291911751E-2,5.925392732E-2,8.679231918E-2
1.493283188E0,-1.343903504E-2,6.291911751E-2,5.803219974E-2,8.664386428E-2
1.495333653E0,-1.710422710E-2,5.497787148E-2,6.047565863E-2,8.350105522E-2
1.497235418E0,-2.076941915E-2,5.070181563E-2,5.925392732E-2,8.070359833E-2
1.499137614E0,-2.321287990E-2,5.009094998E-2,5.803219974E-2,8.009792301E-2
1.501418611E0,-2.809980139E-2,5.131268129E-2,6.047565863E-2,8.414211422E-2
1.503182499E0,-3.359758854E-2,5.192354694E-2,6.230825558E-2,8.779049719E-2
1.505410341E0,-4.031710699E-2,5.864306539E-2,6.352998316E-2,9.539673472E-2
1.507283191E0,-4.153883830E-2,6.230825558E-2,6.719517708E-2,1.006130490E-1
1.509580880E0,-4.276056588E-2,6.719517708E-2,7.024950534E-2,1.062009925E-1
1.511406961E0,-4.520402849E-2,7.086037099E-2,7.391469181E-2,1.119284505E-1
1.513682841E0,-4.764748737E-2,7.208210230E-2,8.002334833E-2,1.177703222E-1
1.515678226E0,-4.703662544E-2,7.086037099E-2,8.307767659E-2,1.188929630E-1
1.517744880E0,-4.520402849E-2,7.086037099E-2,8.491026610E-2,1.194753098E-1
1.519565499E0,-4.092797264E-2,6.658431143E-2,8.796459436E-2,1.176704693E-1
1.521797264E0,-3.787364438E-2,6.414084882E-2,9.040805697E-2,1.171412745E-1
1.523638384E0,-3.420845419E-2,5.986479297E-2,9.224065393E-2,1.151622769E-1
1.525918649E0,-2.993239649E-2,5.436700583E-2,9.285151958E-2,1.116831427E-1
1.527775038E0,-2.382374369E-2,5.009094998E-2,9.407325089E-2,1.092082898E-1
1.529958264E0,-1.893682219E-2,4.276056588E-2,9.529497474E-2,1.061517849E-1
1.531962691E0,-1.404990070E-2,3.787364438E-2,9.529497474E-2,1.035033568E-1
1.534173495E0,-1.160643995E-2,3.665191308E-2,9.773843735E-2,1.050279692E-1
1.536225461E0,-8.552113548E-3,3.420845419E-2,9.590584040E-2,1.021826169E-1
1.538124226E0,-4.886921961E-3,3.298672289E-2,9.468411654E-2,1.003846991E-1
1.540124341E0,-6.108652451E-4,3.787364438E-2,9.040805697E-2,9.802246100E-2
1.542307572E0,0.000000000E0,3.970624134E-2,8.796459436E-2,9.651090852E-2
1.544148038E0,6.108652451E-4,4.092797264E-2,9.040805697E-2,9.924257588E-2
1.546298610E0,7.330383174E-3,4.337143153E-2,9.285151958E-2,1.027434683E-1
1.548333880E0,1.221730467E-2,4.214970022E-2,9.162978828E-2,1.015966430E-1
1.550468149E0,1.527163107E-2,4.153883830E-2,8.918632567E-2,9.956353996E-2
1.552377037E0,1.771509275E-2,4.214970022E-2,8.979719132E-2,1.007668463E-1
1.554570610E0,2.504547499E-2,3.848451003E-2,8.613199741E-2,9.760663045E-2
1.556567226E0,2.809980139E-2,3.054326214E-2,8.002334833E-2,9.014558214E-2
1.558635918E0,3.298672289E-2,3.237585723E-2,7.757988572E-2,9.030480988E-2
1.560496999E0,3.604105115E-2,2.932153270E-2,7.391469181E-2,8.730458930E-2
1.562687572E0,4.092797264E-2,3.298672289E-2,7.269296050E-2,8.970779976E-2
1.564541037E0,4.337143153E-2,3.420845419E-2,7.330382615E-2,9.178643876E-2
1.566809649E0,4.459316283E-2,3.543018550E-2,7.024950534E-2,9.043694608E-2
1.568644653E0,4.764748737E-2,3.848451003E-2,7.452555746E-2,9.646449751E-2
1.570849380E0,4.825835302E-2,5.009094998E-2,7.574728876E-2,1.028378513E-1
1.572877961E0,5.009094998E-2,5.986479297E-2,8.185594529E-2,1.131074378E-1
1.575063110E0,5.070181563E-2,6.536258012E-2,8.368854225E-2,1.176720574E-1
1.577120918E0,5.253441259E-2,7.330382615E-2,9.162978828E-2,1.285664557E-1
1.579014456E0,5.375614017E-2,8.796459436E-2,1.044579595E-1,1.467615678E-1
1.580988999E0,5.558873713E-2,9.407325089E-2,1.136209369E-1,1.576375638E-1
1.583198187E0,5.070181563E-2,1.130100712E-1,1.301143020E-1,1.796432072E-1
1.584991461E0,4.825835302E-2,1.227839142E-1,1.411098689E-1,1.931754470E-1
1.587189110E0,4.459316283E-2,1.288925707E-1,1.539380401E-1,2.056666360E-1
1.589123537E0,4.092797264E-2,1.319468915E-1,1.563815027E-1,2.086630191E-1
1.591359533E0,3.909537569E-2,1.362229437E-1,1.588249654E-1,2.128626515E-1
1.593195730E0,3.298672289E-2,1.350012124E-1,1.551597714E-1,2.082978778E-1
1.595462495E0,3.054326214E-2,1.288925707E-1,1.484402567E-1,1.989489770E-1
1.597433264E0,2.565634064E-2,1.276708394E-1,1.447750628E-1,1.947252163E-1
1.599500418E0,2.565634064E-2,1.227839142E-1,1.386664063E-1,1.869826453E-1
1.601349461E0,2.443460934E-2,1.209513173E-1,1.313360333E-1,1.802093919E-1
1.603551879E0,2.382374369E-2,1.160643995E-1,1.252273768E-1,1.723960890E-1
1.605390384E0,2.626720630E-2,1.081231460E-1,1.117883399E-1,1.577251209E-1
1.607674110E0,2.748893574E-2,1.050688252E-1,9.957103431E-2,1.473414079E-1
1.609643687E0,3.543018550E-2,9.590584040E-2,8.674286306E-2,1.340803959E-1
1.611713533E0,3.604105115E-2,9.407325089E-2,7.757988572E-2,1.271509834E-1
1.613736691E0,4.642575979E-2,8.796459436E-2,6.352998316E-2,1.180219462E-1
1.615928533E0,5.497787148E-2,8.307767659E-2,4.520402849E-2,1.093977646E-1
1.617986533E0,6.414084882E-2,8.124507964E-2,2.993239649E-2,1.077532357E-1
1.619878726E0,6.719517708E-2,7.941248268E-2,2.382374369E-2,1.067197498E-1
1.621802307E0,8.124507964E-2,7.819075137E-2,1.466076635E-2,1.137079357E-1
1.624061495E0,8.552113175E-2,7.452555746E-2,7.330383174E-3,1.136734675E-1
1.625887307E0,9.101892263E-2,7.574728876E-2,5.497787148E-3,1.185424890E-1
1.628053226E0,1.007927656E-1,7.819075137E-2,2.443460980E-3,1.275889717E-1
1.630088110E0,1.044579595E-1,8.307767659E-2,1.221730490E-3,1.334723128E-1
1.632183302E0,1.081231460E-1,8.491026610E-2,-6.108652451E-4,1.374799663E-1
1.634068999E0,1.087340117E-1,8.552113175E-2,-6.108652451E-4,1.383377115E-1
1.636250533E0,1.117883399E-1,8.857546002E-2,6.108652451E-4,1.426275507E-1
1.638247725E0,1.123992056E-1,8.613199741E-2,2.443460980E-3,1.416272322E-1
1.640317495E0,1.142318025E-1,8.063421398E-2,4.276056774E-3,1.398894772E-1
1.642164768E0,1.166752651E-1,7.024950534E-2,3.054326167E-3,1.362256929E-1
1.644368341E0,1.148426682E-1,6.108652428E-2,3.054326167E-3,1.301142989E-1
1.646327037E0,1.154535338E-1,5.497787148E-2,4.886921961E-3,1.279686166E-1
1.648489802E0,1.105666086E-1,4.764748737E-2,4.276056774E-3,1.204721655E-1
1.650319191E0,1.044579595E-1,3.665191308E-2,4.276056774E-3,1.107840815E-1
1.652526879E0,9.834930301E-2,2.626720630E-2,6.108652335E-3,1.019797390E-1
1.654562148E0,9.590584040E-2,2.199114859E-2,7.330383174E-3,9.866749899E-2
1.656742072E0,8.796459436E-2,1.404990070E-2,9.162978269E-3,8.954959376E-2
1.658794384E0,7.635815442E-2,1.099557430E-2,1.160643995E-2,7.801397213E-2
1.660692764E0,6.719517708E-2,9.773843922E-3,1.038470957E-2,6.869179020E-2
1.662628768E0,5.986479297E-2,8.552113548E-3,1.282817032E-2,6.181823386E-2
1.664875148E0,5.253441259E-2,6.719517522E-3,1.404990070E-2,5.479430748E-2
1.666677191E0,4.092797264E-2,7.941247895E-3,1.466076635E-2,4.419389588E-2
1.668866533E0,3.543018550E-2,1.038470957E-2,1.649336144E-2,4.043725026E-2
1.670901610E0,2.504547499E-2,1.160643995E-2,1.588249579E-2,3.184711821E-2
1.673036418E0,1.527163107E-2,1.282817032E-2,1.466076635E-2,2.475323694E-2
1.674892037E0,7.941247895E-3,1.710422710E-2,1.832595654E-2,2.629560202E-2
1.677138571E0,-6.108652451E-4,1.710422710E-2,1.893682219E-2,2.552510481E-2
1.679134341E0,-7.330383174E-3,2.443460934E-2,1.893682219E-2,3.177086536E-2
1.681204033E0,-1.771509275E-2,2.687807009E-2,1.832595654E-2,3.704181213E-2
1.683068307E0,-2.565634064E-2,2.993239649E-2,1.710422710E-2,4.297383808E-2
1.685255610E0,-2.871066704E-2,3.298672289E-2,1.527163107E-2,4.632115072E-2
1.687125153E0,-3.787364438E-2,3.848451003E-2,1.588249579E-2,5.628253836E-2
1.689377918E0,-4.764748737E-2,4.153883830E-2,1.404990070E-2,6.475459713E-2
1.691285460E0,-5.131268129E-2,4.337143153E-2,1.282817032E-2,6.840054304E-2
1.693417341E0,-6.475171447E-2,4.581489414E-2,1.588249579E-2,8.089525774E-2
1.695320114E0,-7.513642311E-2,4.581489414E-2,1.527163107E-2,8.931802348E-2
1.697632764E0,-8.552113175E-2,4.642575979E-2,1.527163107E-2,9.850095362E-2
1.699689879E0,-9.040805697E-2,4.398229718E-2,1.771509275E-2,1.020876278E-1
1.701583610E0,-1.014036313E-1,4.398229718E-2,1.832595654E-2,1.120400803E-1
1.703492422E0,-1.111774743E-1,4.520402849E-2,1.832595654E-2,1.214070659E-1
1.705765379E0,-1.270599663E-1,4.581489414E-2,2.076941915E-2,1.366550707E-1
1.707603922E0,-1.295034289E-1,5.009094998E-2,2.015855350E-2,1.403089757E-1
1.709758148E0,-1.441642046E-1,5.558873713E-2,2.687807009E-2,1.568306610E-1
1.711666037E0,-1.569923609E-1,5.986479297E-2,2.748893574E-2,1.702528602E-1
1.713928225E0,-1.606575549E-1,6.169738993E-2,2.871066704E-2,1.744755578E-1
1.715776653E0,-1.710422635E-1,6.780604273E-2,3.543018550E-2,1.873723923E-1
1.718031264E0,-1.814269722E-1,6.963863969E-2,4.092797264E-2,1.985960355E-1
1.720030071E0,-1.899790913E-1,7.024950534E-2,5.070181563E-2,2.088006759E-1
1.722098225E0,-1.924225539E-1,7.208210230E-2,5.497787148E-2,2.127083333E-1
1.724032917E0,-2.003637999E-1,7.269296050E-2,5.925392732E-2,2.212260083E-1
1.726150148E0,-2.076941878E-1,7.574728876E-2,6.719517708E-2,2.310621544E-1
1.728004384E0,-2.089159191E-1,7.330382615E-2,6.963863969E-2,2.320966443E-1
1.730272033E0,-2.144137025E-1,7.269296050E-2,7.391469181E-2,2.381614662E-1
1.732091384E0,-2.199114859E-1,7.513642311E-2,8.002334833E-2,2.457850280E-1
1.734310379E0,-2.235766798E-1,7.513642311E-2,8.307767659E-2,2.500678192E-1
1.736239268E0,-2.223549485E-1,7.452555746E-2,8.429940045E-2,2.492030713E-1
1.738524994E0,-2.266310006E-1,7.269296050E-2,8.429940045E-2,2.524921105E-1
1.740582840E0,-2.241875380E-1,7.147123665E-2,8.307767659E-2,2.495397568E-1
1.742475494E0,-2.260201424E-1,6.719517708E-2,8.063421398E-2,2.492030760E-1
1.744394230E0,-2.229658216E-1,6.658431143E-2,8.063421398E-2,2.462703892E-1
1.746657264E0,-2.241875380E-1,6.169738993E-2,7.574728876E-2,2.445491196E-1
1.748579033E0,-2.211332172E-1,6.108652428E-2,7.086037099E-2,2.401096737E-1
1.750647840E0,-2.235766798E-1,5.925392732E-2,6.963863969E-2,2.415514434E-1
1.752579037E0,-2.217440903E-1,5.925392732E-2,6.536258012E-2,2.386498196E-1
1.754817802E0,-2.193006277E-1,5.803219974E-2,6.352998316E-2,2.355770793E-1
1.756689999E0,-2.162462920E-1,5.436700583E-2,5.986479297E-2,2.308723101E-1
1.758918648E0,-2.162462920E-1,5.375614017E-2,5.619960278E-2,2.298055194E-1
1.760890187E0,-2.156354338E-1,5.375614017E-2,5.253441259E-2,2.283598639E-1
1.762958802E0,-2.131919712E-1,5.558873713E-2,5.070181563E-2,2.260787438E-1
1.764893456E0,-2.131919712E-1,5.864306539E-2,4.948008433E-2,2.265791351E-1
1.767009956E0,-2.113593817E-1,6.291911751E-2,4.703662544E-2,2.254862473E-1
1.768866883E0,-2.083050460E-1,6.841690838E-2,4.153883830E-2,2.231531775E-1
1.771130802E0,-2.046398520E-1,7.880161703E-2,3.787364438E-2,2.225344397E-1
1.773044807E0,-2.070833147E-1,8.002334833E-2,3.543018550E-2,2.248166665E-1
1.775169379E0,-2.046398520E-1,8.796459436E-2,3.176499158E-2,2.249983413E-1
1.777177999E0,-2.076941878E-1,9.590584040E-2,3.298672289E-2,2.311340082E-1
1.779384302E0,-2.040289938E-1,1.062905490E-1,3.176499158E-2,2.322380801E-1
1.781442994E0,-2.052507252E-1,1.105666086E-1,2.871066704E-2,2.348981429E-1
1.783336225E0,-2.064724565E-1,1.203404516E-1,2.809980139E-2,2.406289642E-1
1.785241076E0,-2.083050460E-1,1.270599663E-1,2.443460934E-2,2.452188356E-1
1.787518379E0,-2.101376504E-1,1.331686229E-1,2.565634064E-2,2.500999041E-1
1.789439725E0,-2.089159191E-1,1.374446750E-1,2.626720630E-2,2.514495298E-1
1.791509263E0,-2.113593817E-1,1.417207420E-1,2.321287990E-2,2.555315924E-1
1.793544071E0,-2.113593817E-1,1.429424733E-1,2.260201424E-2,2.561565731E-1
1.795678879E0,-2.107485086E-1,1.459967941E-1,2.199114859E-2,2.573200505E-1
1.797648263E0,-2.131919712E-1,1.466076523E-1,2.138028294E-2,2.596184446E-1
1.799781148E0,-2.144137025E-1,1.484402567E-1,1.893682219E-2,2.614695945E-1
1.801777648E0,-2.150245607E-1,1.478293836E-1,1.954768784E-2,2.616700221E-1
1.803844494E0,-2.125810981E-1,1.502728462E-1,1.832595654E-2,2.609760377E-1
1.805686768E0,-2.168571651E-1,1.563815027E-1,1.771509275E-2,2.679478102E-1
1.807895571E0,-2.138028294E-1,1.521054506E-1,1.710422710E-2,2.629453794E-1
1.809757845E0,-2.131919712E-1,1.539380401E-1,1.649336144E-2,2.634763135E-1
1.812018033E0,-2.119702399E-1,1.576032341E-1,1.404990070E-2,2.645138214E-1
1.813912845E0,-2.125810981E-1,1.563815027E-1,1.527163107E-2,2.643465914E-1
1.816056456E0,-2.125810981E-1,1.527163088E-1,9.773843922E-3,2.619322857E-1
1.818030114E0,-2.095267773E-1,1.563815027E-1,1.099557430E-2,2.616821497E-1
1.820271648E0,-2.076941878E-1,1.545489132E-1,6.719517522E-3,2.589737325E-1
1.822329725E0,-2.040289938E-1,1.588249654E-1,7.330383174E-3,2.586637479E-1
1.824222456E0,-2.040289938E-1,1.588249654E-1,6.108652335E-3,2.586320080E-1
1.826222648E0,-2.034181207E-1,1.582140923E-1,5.497787148E-3,2.577612393E-1
1.828404186E0,-2.003637999E-1,1.588249654E-1,5.497787148E-3,2.557366763E-1
1.830196883E0,-1.936442852E-1,1.631010175E-1,6.108652335E-3,2.532535621E-1
1.832394994E0,-1.930334121E-1,1.655444801E-1,6.108652335E-3,2.543701805E-1
1.834378230E0,-1.899790913E-1,1.649336219E-1,6.108652451E-4,2.515860249E-1
1.836563609E0,-1.850921661E-1,1.679879427E-1,0.000000000E0,2.499581142E-1
1.838517845E0,-1.808161139E-1,1.692096740E-1,-6.108652451E-4,2.476423914E-1
1.840665417E0,-1.783726513E-1,1.673770845E-1,-6.108652451E-4,2.446063456E-1
1.842660686E0,-1.728748679E-1,1.704314053E-1,-1.221730490E-3,2.427634167E-1
1.844728532E0,-1.667662114E-1,1.753183305E-1,-6.108652451E-4,2.419666494E-1
1.846587999E0,-1.643227488E-1,1.765400618E-1,-6.108652451E-4,2.411819486E-1
1.848779417E0,-1.624901593E-1,1.783726513E-1,-2.443460980E-3,2.413002800E-1
1.850654191E0,-1.551597714E-1,1.753183305E-1,-3.665191587E-3,2.341463331E-1
1.852901763E0,-1.502728462E-1,1.728748679E-1,-4.276056774E-3,2.290980858E-1
1.854870955E0,-1.453859210E-1,1.692096740E-1,-4.276056774E-3,2.231305996E-1
1.856939571E0,-1.429424733E-1,1.673770845E-1,-6.108652335E-3,2.201929943E-1
1.858974109E0,-1.398881376E-1,1.667662114E-1,-6.108652335E-3,2.177543936E-1
1.861154032E0,-1.337794960E-1,1.637118906E-1,-3.665191587E-3,2.114520520E-1
1.863211878E0,-1.301143020E-1,1.637118906E-1,-2.443460980E-3,2.091346103E-1
1.865105378E0,-1.246165112E-1,1.618792862E-1,-2.443460980E-3,2.043040593E-1
1.867016268E0,-1.197295859E-1,1.594358236E-1,3.054326167E-3,1.994098405E-1
1.869287378E0,-1.172861308E-1,1.612684280E-1,4.276056774E-3,1.994538217E-1
1.871192730E0,-1.111774743E-1,1.643227488E-1,7.941247895E-3,1.985584548E-1
1.873278071E0,-1.075122803E-1,1.667662114E-1,1.221730467E-2,1.987941705E-1
1.875313186E0,-1.075122803E-1,1.753183305E-1,1.771509275E-2,2.064200377E-1
1.877408186E0,-1.062905490E-1,1.783726513E-1,1.649336144E-2,2.082942979E-1
1.879231691E0,-1.038470939E-1,1.863138974E-1,2.321287990E-2,2.145598403E-1
1.881475648E0,-1.014036313E-1,1.936442852E-1,2.443460934E-2,2.199496664E-1
1.883470878E0,-9.712757170E-2,1.991420686E-1,2.626720630E-2,2.231172221E-1
1.885538878E0,-9.712757170E-2,2.003637999E-1,2.687807009E-2,2.242807351E-1
1.887352306E0,-9.529497474E-2,2.070833147E-1,3.237585723E-2,2.302451466E-1
1.889589225E0,-9.346238524E-2,2.107485086E-1,3.970624134E-2,2.339374637E-1
1.891436537E0,-8.979719132E-2,2.101376504E-1,4.092797264E-2,2.321561255E-1
1.893711763E0,-8.796459436E-2,2.058615834E-1,4.337143153E-2,2.280303542E-1
1.895547537E0,-8.124507964E-2,2.028072625E-1,4.398229718E-2,2.228586798E-1
1.897750878E0,-7.819075137E-2,2.009746730E-1,4.520402849E-2,2.203361455E-1
1.899701999E0,-7.391469181E-2,1.936442852E-1,4.764748737E-2,2.126776291E-1
1.901966378E0,-6.414084882E-2,1.863138974E-1,4.459316283E-2,2.020283817E-1
1.904014883E0,-5.742133409E-2,1.808161139E-1,4.153883830E-2,1.942090414E-1
1.905917917E0,-5.314527452E-2,1.759291887E-1,4.214970022E-2,1.885526369E-1
1.907918071E0,-4.337143153E-2,1.667662114E-1,3.665191308E-2,1.761687063E-1
1.910100994E0,-3.543018550E-2,1.606575549E-1,3.481931984E-2,1.681622223E-1
1.911868999E0,-2.626720630E-2,1.563815027E-1,3.237585723E-2,1.618435561E-1
1.914091917E0,-1.954768784E-2,1.502728462E-1,2.809980139E-2,1.541221569E-1
1.915965153E0,-7.941247895E-3,1.441642046E-1,2.565634064E-2,1.466445673E-1
1.918262571E0,1.832595794E-3,1.392772794E-1,2.443460934E-2,1.414162971E-1
1.920054768E0,7.330383174E-3,1.423316002E-1,2.626720630E-2,1.449206164E-1
1.922365571E0,1.588249579E-2,1.392772794E-1,2.076941915E-2,1.417102078E-1
1.924325499E0,2.748893574E-2,1.386664063E-1,1.893682219E-2,1.426275466E-1
1.926406378E0,3.237585723E-2,1.417207420E-1,2.138028294E-2,1.469356367E-1
1.928201768E0,3.665191308E-2,1.417207420E-1,1.954768784E-2,1.476829155E-1
1.930457917E0,4.276056588E-2,1.466076523E-1,1.893682219E-2,1.538859089E-1
1.932247345E0,4.520402849E-2,1.459967941E-1,1.954768784E-2,1.540797851E-1
1.934580378E0,5.192354694E-2,1.441642046E-1,1.832595654E-2,1.543217849E-1
1.936402191E0,5.497787148E-2,1.447750628E-1,1.710422710E-2,1.558041711E-1
1.938619532E0,5.803219974E-2,1.435533315E-1,1.588249579E-2,1.556520121E-1
1.940473960E0,5.986479297E-2,1.386664063E-1,1.649336144E-2,1.519348434E-1
1.942834147E0,5.803219974E-2,1.374446750E-1,1.527163107E-2,1.499733230E-1
1.944839037E0,5.986479297E-2,1.331686229E-1,1.466076635E-2,1.467399524E-1
1.946785763E0,5.619960278E-2,1.270599663E-1,1.527163107E-2,1.397707162E-1
1.948634537E0,5.497787148E-2,1.252273768E-1,1.466076635E-2,1.375478111E-1
1.950967301E0,5.070181563E-2,1.178969890E-1,1.710422710E-2,1.294717294E-1
1.952702076E0,4.581489414E-2,1.148426682E-1,1.771509275E-2,1.249066350E-1
1.954957340E0,3.604105115E-2,1.062905490E-1,1.588249579E-2,1.133529526E-1
1.956797422E0,3.420845419E-2,1.032362282E-1,1.954768784E-2,1.104990917E-1
1.959125455E0,2.321287990E-2,9.834930301E-2,2.015855350E-2,1.030426634E-1
1.960903230E0,1.282817032E-2,9.346238524E-2,2.015855350E-2,9.646837143E-2
1.963227070E0,6.108652451E-4,8.918632567E-2,1.954768784E-2,9.130545407E-2
1.965193268E0,-4.276056774E-3,8.491026610E-2,1.954768784E-2,8.723617398E-2
1.967292955E0,-1.282817032E-2,8.185594529E-2,2.076941915E-2,8.541853724E-2
1.969065230E0,-2.382374369E-2,7.757988572E-2,2.199114859E-2,8.408222195E-2
1.971344609E0,-3.420845419E-2,7.574728876E-2,2.015855350E-2,8.552331479E-2
1.973173653E0,-4.031710699E-2,7.635815442E-2,2.138028294E-2,8.895590683E-2
1.975466224E0,-4.764748737E-2,7.819075137E-2,2.321287990E-2,9.446117957E-2
1.977271230E0,-5.986479297E-2,8.185594529E-2,2.260201424E-2,1.038991832E-1
1.979505609E0,-6.230825558E-2,8.246681094E-2,2.443460934E-2,1.062080211E-1
1.981353537E0,-7.269296050E-2,8.918632567E-2,2.504547499E-2,1.177528896E-1
1.983720109E0,-7.757988572E-2,9.651670605E-2,2.565634064E-2,1.264609071E-1
1.985743999E0,-8.674286306E-2,1.081231460E-1,2.382374369E-2,1.406503102E-1
1.987673493E0,-9.040805697E-2,1.117883399E-1,2.504547499E-2,1.459367175E-1
1.989554922E0,-9.712757170E-2,1.252273768E-1,2.626720630E-2,1.606412998E-1
1.991855801E0,-1.075122803E-1,1.398881376E-1,2.809980139E-2,1.786538001E-1
1.993673422E0,-1.117883399E-1,1.441642046E-1,2.748893574E-2,1.844873774E-1
1.995846878E0,-1.203404516E-1,1.594358236E-1,2.626720630E-2,2.014735026E-1
1.997725999E0,-1.343903542E-1,1.728748679E-1,2.748893574E-2,2.206855882E-1
2.000017647E0,-1.472185254E-1,1.802052408E-1,3.054326214E-2,2.346915293E-1
2.001806422E0,-1.527163088E-1,1.863138974E-1,2.932153270E-2,2.426826974E-1
2.004119839E0,-1.661553532E-1,1.979203373E-1,2.993239649E-2,2.601461314E-1
2.006103845E0,-1.820378453E-1,2.052507252E-1,2.993239649E-2,2.759738858E-1
2.008182339E0,-1.991420686E-1,2.083050460E-1,3.237585723E-2,2.899943996E-1
2.009979114E0,-2.058615834E-1,2.107485086E-1,3.176499158E-2,2.963156089E-1
2.012232493E0,-2.229658216E-1,2.138028294E-1,3.054326214E-2,3.104163306E-1
2.014037614E0,-2.364048511E-1,2.083050460E-1,3.237585723E-2,3.167434955E-1
2.016353301E0,-2.425135076E-1,2.083050460E-1,3.298672289E-2,3.213905995E-1
2.018149306E0,-2.590068579E-1,2.034181207E-1,3.543018550E-2,3.312382561E-1
2.020392724E0,-2.748893499E-1,1.924225539E-1,3.848451003E-2,3.377449503E-1
2.022247037E0,-2.858849466E-1,1.826487035E-1,4.398229718E-2,3.420894532E-1
2.024607916E0,-2.901609838E-1,1.771509200E-1,4.520402849E-2,3.429566287E-1
2.026659460E0,-3.011565804E-1,1.661553532E-1,4.886921868E-2,3.474062289E-1
2.028558416E0,-3.072652221E-1,1.533271819E-1,5.009094998E-2,3.470306106E-1
2.030406460E0,-3.121521473E-1,1.466076523E-1,5.131268129E-2,3.486628142E-1
2.032742070E0,-3.164281845E-1,1.325577646E-1,5.253441259E-2,3.470709170E-1
2.034477114E0,-3.194825351E-1,1.209513173E-1,5.497787148E-2,3.460070487E-1
2.036732570E0,-3.194825351E-1,1.111774743E-1,5.436700583E-2,3.426153709E-1
2.038579614E0,-3.194825351E-1,1.056796908E-1,5.314527452E-2,3.406783050E-1
2.040901301E0,-3.170390725E-1,9.712757170E-2,5.619960278E-2,3.363122567E-1
2.042675268E0,-3.121521473E-1,8.674286306E-2,5.619960278E-2,3.288186167E-1
2.045003685E0,-3.072652221E-1,8.063421398E-2,5.742133409E-2,3.228172901E-1
2.046998653E0,-3.036000133E-1,7.757988572E-2,5.803219974E-2,3.186837663E-1
2.049068109E0,-2.962696552E-1,6.780604273E-2,5.925392732E-2,3.096520563E-1
2.050846729E0,-2.840523422E-1,5.681046844E-2,6.108652428E-2,2.960485194E-1
2.053119955E0,-2.785545588E-1,5.375614017E-2,6.230825558E-2,2.904559924E-1
2.054924191E0,-2.645046413E-1,4.642575979E-2,6.352998316E-2,2.759603508E-1
2.057242455E0,-2.535090744E-1,3.359758854E-2,6.352998316E-2,2.634989707E-1
2.059044653E0,-2.382374406E-1,2.687807009E-2,6.719517708E-2,2.489873502E-1
2.061281032E0,-2.315179259E-1,2.076941915E-2,6.475171447E-2,2.412979554E-1
2.063127306E0,-2.168571651E-1,1.099557430E-2,6.414084882E-2,2.264110889E-1
2.065496916E0,-2.046398520E-1,3.054326167E-3,6.719517708E-2,2.154112109E-1
2.067495345E0,-1.936442852E-1,-4.886921961E-3,6.841690838E-2,2.054333579E-1
2.069449339E0,-1.826487035E-1,-9.162978269E-3,6.719517708E-2,1.948324944E-1
2.071324037E0,-1.734857261E-1,-1.343903504E-2,7.208210230E-2,1.883447220E-1
2.073631532E0,-1.618792862E-1,-2.138028294E-2,7.269296050E-2,1.787352408E-1
2.075369383E0,-1.588249654E-1,-2.504547499E-2,7.391469181E-2,1.769633496E-1
2.077623570E0,-1.496619880E-1,-2.932153270E-2,7.635815442E-2,1.705550664E-1
2.079488460E0,-1.362229437E-1,-2.993239649E-2,8.307767659E-2,1.623408115E-1
2.081793531E0,-1.233947799E-1,-3.604105115E-2,8.735372871E-2,1.554216941E-1
2.083585922E0,-1.191187203E-1,-4.092797264E-2,9.224065393E-2,1.561176054E-1
2.085895839E0,-1.038470939E-1,-4.459316283E-2,9.773843735E-2,1.494174395E-1
2.087850883E0,-9.101892263E-2,-5.253441259E-2,1.056796908E-1,1.490386052E-1
2.089934262E0,-7.513642311E-2,-5.925392732E-2,1.105666086E-1,1.462240914E-1
2.091738652E0,-6.902777404E-2,-6.230825558E-2,1.142318025E-1,1.472958146E-1
2.093986531E0,-5.375614017E-2,-6.780604273E-2,1.185078546E-1,1.467361361E-1
2.095803537E0,-4.153883830E-2,-7.757988572E-2,1.246165112E-1,1.525561818E-1
2.098108224E0,-3.359758854E-2,-8.063421398E-2,1.252273768E-1,1.526845451E-1
2.099915729E0,-2.138028294E-2,-8.857546002E-2,1.295034289E-1,1.583472978E-1
2.102146762E0,-5.497787148E-3,-9.162978828E-2,1.337794960E-1,1.622442520E-1
2.104023499E0,7.330383174E-3,-9.162978828E-2,1.368338168E-1,1.648430952E-1
2.106361724E0,1.160643995E-2,-9.224065393E-2,1.368338168E-1,1.654283564E-1
2.108410345E0,2.565634064E-2,-8.857546002E-2,1.380555481E-1,1.660216681E-1
2.110312608E0,3.481931984E-2,-8.246681094E-2,1.380555481E-1,1.645372125E-1
2.112211652E0,4.092797264E-2,-7.880161703E-2,1.362229437E-1,1.626083767E-1
2.114495762E0,5.253441259E-2,-7.452555746E-2,1.325577646E-1,1.608896646E-1
2.116233768E0,6.475171447E-2,-6.536258012E-2,1.264491081E-1,1.563791174E-1
2.118487031E0,7.574728876E-2,-5.742133409E-2,1.209513173E-1,1.538313444E-1
2.120522224E0,8.124507964E-2,-5.314527452E-2,1.172861308E-1,1.522538001E-1
2.122618262E0,9.040805697E-2,-5.009094998E-2,1.075122803E-1,1.491362145E-1
2.124369152E0,1.026253626E-1,-4.031710699E-2,9.773843735E-2,1.473439388E-1
2.126685724E0,1.148426682E-1,-3.543018550E-2,8.674286306E-2,1.482176129E-1
2.128658422E0,1.203404516E-1,-3.665191308E-2,8.124507964E-2,1.497529632E-1
2.130749147E0,1.325577646E-1,-3.115412779E-2,7.330382615E-2,1.546466669E-1
2.132585191E0,1.429424733E-1,-2.809980139E-2,6.414084882E-2,1.591734840E-1
2.134799839E0,1.502728462E-1,-2.748893574E-2,5.803219974E-2,1.634175820E-1
2.136659729E0,1.588249654E-1,-2.443460934E-2,4.948008433E-2,1.681389262E-1
2.138920916E0,1.722639948E-1,-2.321287990E-2,4.031710699E-2,1.784353968E-1
2.140728576E0,1.759291887E-1,-2.076941915E-2,3.543018550E-2,1.806591992E-1
2.142959031E0,1.832595766E-1,-2.076941915E-2,2.809980139E-2,1.865610892E-1
2.144858306E0,1.912008226E-1,-2.260201424E-2,1.954768784E-2,1.935218791E-1
2.147174147E0,1.985312104E-1,-2.504547499E-2,1.221730467E-2,2.004773799E-1
2.149231685E0,2.021963894E-1,-2.871066704E-2,7.330383174E-3,2.043561030E-1
2.151124877E0,2.034181207E-1,-2.871066704E-2,4.276056774E-3,2.054787554E-1
2.153012845E0,2.083050460E-1,-3.420845419E-2,4.276056774E-3,2.111385687E-1
2.155307108E0,2.083050460E-1,-4.337143153E-2,3.054326167E-3,2.127942719E-1
2.157173037E0,2.076941878E-1,-4.520402849E-2,4.276056774E-3,2.125995402E-1
2.159297147E0,2.113593817E-1,-5.009094998E-2,9.773843922E-3,2.174337129E-1
2.161218460E0,2.083050460E-1,-5.681046844E-2,1.527163107E-2,2.164524063E-1
2.163465839E0,2.021963894E-1,-6.047565863E-2,2.199114859E-2,2.121892924E-1
2.165303537E0,2.015855312E-1,-6.352998316E-2,2.871066704E-2,2.133004631E-1
2.167566800E0,1.924225539E-1,-6.780604273E-2,4.031710699E-2,2.079653043E-1
2.169561762E0,1.869247705E-1,-7.024950534E-2,5.131268129E-2,2.061767545E-1
2.171627608E0,1.826487035E-1,-7.147123665E-2,5.742133409E-2,2.043670623E-1
2.173440229E0,1.710422635E-1,-8.063421398E-2,6.719517708E-2,2.006801540E-1
2.175676647E0,1.618792862E-1,-9.162978828E-2,7.330382615E-2,1.999359205E-1
2.177497345E0,1.582140923E-1,-9.407325089E-2,7.819075137E-2,1.999881725E-1
2.179797377E0,1.459967941E-1,-1.014036313E-1,8.368854225E-2,1.964727269E-1
2.181627460E0,1.380555481E-1,-1.105666086E-1,9.040805697E-2,1.986401925E-1
2.183834223E0,1.301143020E-1,-1.166752651E-1,1.001819000E-1,2.014429502E-1
2.185736076E0,1.227839142E-1,-1.178969890E-1,1.020144969E-1,1.984503645E-1
2.188048685E0,1.154535338E-1,-1.233947799E-1,1.069014147E-1,1.999592524E-1
2.190105800E0,1.093448773E-1,-1.240056455E-1,1.117883399E-1,1.995753874E-1
2.191998877E0,1.014036313E-1,-1.246165112E-1,1.178969890E-1,1.992778746E-1
2.193886345E0,9.896016866E-2,-1.221730486E-1,1.197295859E-1,1.976222217E-1
2.196181416E0,9.101892263E-2,-1.172861308E-1,1.221730486E-1,1.922673517E-1
2.197916152E0,8.552113175E-2,-1.117883399E-1,1.233947799E-1,1.871811118E-1
2.200172185E0,8.368854225E-2,-1.105666086E-1,1.221730486E-1,1.848107162E-1
2.202019345E0,7.696902007E-2,-1.069014147E-1,1.246165112E-1,1.813323396E-1
2.204342069E0,7.452555746E-2,-1.007927656E-1,1.227839142E-1,1.754683160E-1
2.206138191E0,6.902777404E-2,-9.346238524E-2,1.209513173E-1,1.677178350E-1
2.208443531E0,6.780604273E-2,-9.224065393E-2,1.197295859E-1,1.656537697E-1
2.210441723E0,6.352998316E-2,-8.613199741E-2,1.172861308E-1,1.587791429E-1
2.212509916E0,5.986479297E-2,-7.696902007E-2,1.148426682E-1,1.506547773E-1
2.214350499E0,5.558873713E-2,-7.269296050E-2,1.142318025E-1,1.463669324E-1
2.216560569E0,5.314527452E-2,-6.963863969E-2,1.142318025E-1,1.439543853E-1
2.218419999E0,4.764748737E-2,-6.536258012E-2,1.136209369E-1,1.394713850E-1
2.220682685E0,4.581489414E-2,-6.414084882E-2,1.117883399E-1,1.367833541E-1
2.222596037E0,4.276056588E-2,-6.536258012E-2,1.105666086E-1,1.353724780E-1
2.224720416E0,3.970624134E-2,-6.902777404E-2,1.075122803E-1,1.337920387E-1
2.226607999E0,3.787364438E-2,-7.391469181E-2,1.075122803E-1,1.358553828E-1
2.228935069E0,3.481931984E-2,-8.368854225E-2,1.062905490E-1,1.396919395E-1
2.230958537E0,3.543018550E-2,-8.429940045E-2,1.081231460E-1,1.416061498E-1
2.232887723E0,3.237585723E-2,-8.796459436E-2,1.105666086E-1,1.449515123E-1
2.234752229E0,3.176499158E-2,-9.651670605E-2,1.111774743E-1,1.506151387E-1
2.237068954E0,3.054326214E-2,-1.062905490E-1,1.148426682E-1,1.594346578E-1
2.238811037E0,2.871066704E-2,-1.099557430E-1,1.172861308E-1,1.633113722E-1
2.241060069E0,3.298672289E-2,-1.240056455E-1,1.172861308E-1,1.738434942E-1
2.242910960E0,3.420845419E-2,-1.343903542E-1,1.172861308E-1,1.816232972E-1
2.245228877E0,3.298672289E-2,-1.386664063E-1,1.191187203E-1,1.857572761E-1
2.247007345E0,3.665191308E-2,-1.508837193E-1,1.197295859E-1,1.960725204E-1
2.249331223E0,3.848451003E-2,-1.594358236E-1,1.221730486E-1,2.045167307E-1
2.251290306E0,4.398229718E-2,-1.685988009E-1,1.276708394E-1,2.160088919E-1
2.253368415E0,4.398229718E-2,-1.734857261E-1,1.319468915E-1,2.223549456E-1
2.255157999E0,4.948008433E-2,-1.820378453E-1,1.343903542E-1,2.316178386E-1
2.257419185E0,4.948008433E-2,-1.924225539E-1,1.362229437E-1,2.408970908E-1
2.259275575E0,5.070181563E-2,-1.942551434E-1,1.380555481E-1,2.436494802E-1
2.261541031E0,5.192354694E-2,-2.021963894E-1,1.398881376E-1,2.512929081E-1
2.263375768E0,5.070181563E-2,-2.089159191E-1,1.435533315E-1,2.585035673E-1
2.265578762E0,5.131268129E-2,-2.138028294E-1,1.429424733E-1,2.622540596E-1
2.267505383E0,5.009094998E-2,-2.168571651E-1,1.429424733E-1,2.645159428E-1
2.269793262E0,4.764748737E-2,-2.241875380E-1,1.417207420E-1,2.694718983E-1
2.271849915E0,4.153883830E-2,-2.272418737E-1,1.380555481E-1,2.691164778E-1
2.273743338E0,3.665191308E-2,-2.290744632E-1,1.343903542E-1,2.681030394E-1
2.275644268E0,3.176499158E-2,-2.302961946E-1,1.331686229E-1,2.679164684E-1
2.277925685E0,2.260201424E-2,-2.284636050E-1,1.252273768E-1,2.615116934E-1
2.279759614E0,1.099557430E-2,-2.247984111E-1,1.185078546E-1,2.543606493E-1
2.281916415E0,4.886921961E-3,-2.223549485E-1,1.154535338E-1,2.505895521E-1
2.283773999E0,-6.108652335E-3,-2.193006277E-1,1.105666086E-1,2.456726600E-1
2.286085646E0,-1.954768784E-2,-2.119702399E-1,1.007927656E-1,2.355263813E-1
2.288030499E0,-3.237585723E-2,-2.089159191E-1,9.529497474E-2,2.318947813E-1
2.290187108E0,-3.787364438E-2,-2.076941878E-1,9.162978828E-2,2.301462723E-1
2.292160768E0,-5.009094998E-2,-2.064724565E-1,8.613199741E-2,2.292568418E-1
2.294250646E0,-6.291911751E-2,-2.064724565E-1,7.880161703E-2,2.297811687E-1
2.296047806E0,-6.902777404E-2,-2.064724565E-1,7.880161703E-2,2.315284080E-1
2.298301415E0,-7.757988572E-2,-2.076941878E-1,7.452555746E-2,2.339007760E-1
2.300102537E0,-8.674286306E-2,-2.101376504E-1,7.269296050E-2,2.386763979E-1
2.302423415E0,-9.162978828E-2,-2.138028294E-1,7.819075137E-2,2.454006144E-1
2.304252922E0,-9.834930301E-2,-2.156354338E-1,8.063421398E-2,2.503459650E-1
2.306462492E0,-1.026253626E-1,-2.223549485E-1,8.246681094E-2,2.584075523E-1
2.308358345E0,-1.050688252E-1,-2.254092693E-1,8.613199741E-2,2.631872294E-1
2.310677723E0,-1.069014147E-1,-2.370157093E-1,8.735372871E-2,2.742900524E-1
2.312733883E0,-1.093448773E-1,-2.394591719E-1,8.735372871E-2,2.773583803E-1
2.314627531E0,-1.087340117E-1,-2.486221492E-1,8.918632567E-2,2.856400866E-1
2.316527922E0,-1.111774743E-1,-2.571742535E-1,8.735372871E-2,2.934786216E-1
2.318810031E0,-1.123992056E-1,-2.632829249E-1,8.307767659E-2,2.980828413E-1
2.320592306E0,-1.123992056E-1,-2.657263875E-1,8.368854225E-2,3.004128268E-1
2.322800569E0,-1.148426682E-1,-2.675589919E-1,8.307767659E-2,3.027846643E-1
2.324689998E0,-1.154535338E-1,-2.748893499E-1,8.002334833E-2,3.087027850E-1
2.326969531E0,-1.154535338E-1,-2.767219543E-1,8.002334833E-2,3.103357775E-1
2.328789037E0,-1.172861308E-1,-2.797762752E-1,7.696902007E-2,3.129776840E-1
2.331071646E0,-1.172861308E-1,-2.834414840E-1,7.513642311E-2,3.158173418E-1
2.333066915E0,-1.178969890E-1,-2.864958048E-1,7.391469181E-2,3.185010641E-1
2.335135607E0,-1.209513173E-1,-2.883284092E-1,7.574728876E-2,3.217143833E-1
2.336923191E0,-1.197295859E-1,-2.919935882E-1,7.208210230E-2,3.237147800E-1
2.339187530E0,-1.258382350E-1,-2.919935882E-1,7.147123665E-2,3.258890219E-1
2.341014922E0,-1.258382350E-1,-2.919935882E-1,7.024950534E-2,3.256232638E-1
2.343310223E0,-1.295034289E-1,-2.907718420E-1,6.780604273E-2,3.254490154E-1
2.345119229E0,-1.331686229E-1,-2.883284092E-1,6.352998316E-2,3.238876540E-1
2.347349030E0,-1.362229437E-1,-2.913827300E-1,5.742133409E-2,3.267381143E-1
2.349231152E0,-1.386664063E-1,-2.907718420E-1,5.436700583E-2,3.266992618E-1
2.351564338E0,-1.441642046E-1,-2.889392674E-1,5.131268129E-2,3.269590332E-1
2.353570883E0,-1.453859210E-1,-2.846632004E-1,4.703662544E-2,3.230830355E-1
2.355515030E0,-1.484402567E-1,-2.858849466E-1,4.337143153E-2,3.250319885E-1
2.357454383E0,-1.514945775E-1,-2.822197378E-1,3.787364438E-2,3.225414707E-1
2.359697992E0,-1.551597714E-1,-2.767219543E-1,3.115412779E-2,3.187791938E-1
2.361620030E0,-1.545489132E-1,-2.706133127E-1,2.321287990E-2,3.124992310E-1
2.363689800E0,-1.557706445E-1,-2.681698501E-1,2.076941915E-2,3.108229898E-1
2.365724992E0,-1.569923609E-1,-2.608394623E-1,1.466076635E-2,3.047929864E-1
2.367820300E0,-1.569923609E-1,-2.541199327E-1,7.941247895E-3,2.988086428E-1
2.369595652E0,-1.551597714E-1,-2.516764700E-1,4.886921961E-3,2.957016778E-1
2.371888530E0,-1.539380401E-1,-2.492330223E-1,-4.276056774E-3,2.929715076E-1
2.373885877E0,-1.514945775E-1,-2.461786866E-1,-9.773843922E-3,2.892232369E-1
2.375955223E0,-1.466076523E-1,-2.419026345E-1,-1.466076635E-2,2.832412865E-1
2.377796498E0,-1.441642046E-1,-2.425135076E-1,-1.832595654E-2,2.827224079E-1
2.380007761E0,-1.429424733E-1,-2.376265824E-1,-1.954768784E-2,2.779947040E-1
2.381822152E0,-1.392772794E-1,-2.339613885E-1,-1.710422710E-2,2.728161403E-1
2.384130953E0,-1.362229437E-1,-2.235766798E-1,-2.443460980E-3,2.618190074E-1
2.385913922E0,-1.325577646E-1,-2.168571651E-1,8.552113548E-3,2.543063697E-1
2.388170915E0,-1.282816976E-1,-2.125810981E-1,2.443460934E-2,2.494874092E-1
2.390037845E0,-1.221730486E-1,-2.162462920E-1,3.115412779E-2,2.503183818E-1
2.392387300E0,-1.172861308E-1,-2.272418737E-1,3.176499158E-2,2.576895814E-1
2.394387652E0,-1.148426682E-1,-2.357939780E-1,2.993239649E-2,2.639764892E-1
2.396338184E0,-1.087340117E-1,-2.535090744E-1,2.199114859E-2,2.767192562E-1
2.398285537E0,-1.069014147E-1,-2.755002379E-1,9.773843922E-3,2.956751961E-1
2.400521569E0,-1.050688252E-1,-2.834414840E-1,1.832595794E-3,3.022943785E-1
2.402443069E0,-1.020144969E-1,-3.090978265E-1,-1.099557430E-2,3.256828620E-1
2.404512338E0,-1.007927656E-1,-3.262020350E-1,-2.748893574E-2,3.425238543E-1
2.406546992E0,-9.957103431E-2,-3.341432810E-1,-3.481931984E-2,3.503976429E-1
2.408682838E0,-9.590584040E-2,-3.500257730E-1,-5.009094998E-2,3.663674048E-1
2.410501152E0,-9.346238524E-2,-3.530801237E-1,-6.047565863E-2,3.702135822E-1
2.412785876E0,-8.796459436E-2,-3.561344445E-1,-6.291911751E-2,3.721939384E-1
2.414757415E0,-8.491026610E-2,-3.555235863E-1,-6.658431143E-2,3.715376754E-1
2.416824453E0,-7.941248268E-2,-3.518583775E-1,-7.391469181E-2,3.682038048E-1
2.418647806E0,-7.208210230E-2,-3.475823104E-1,-8.246681094E-2,3.644311552E-1
2.420876607E0,-6.475171447E-2,-3.390302062E-1,-8.979719132E-2,3.566480069E-1
2.422709345E0,-6.475171447E-2,-3.335324228E-1,-9.468411654E-2,3.527063134E-1
2.424999761E0,-5.497787148E-2,-3.188716471E-1,-1.001819000E-1,3.387301386E-1
2.426877883E0,-5.009094998E-2,-2.987131178E-1,-9.834930301E-2,3.184512764E-1
2.429038338E0,-4.092797264E-2,-2.907718420E-1,-1.014036313E-1,3.106542443E-1
2.430966229E0,-3.298672289E-2,-2.748893499E-1,-9.712757170E-2,2.934042327E-1
2.433252684E0,-2.076941915E-2,-2.596177161E-1,-9.407325089E-2,2.769160591E-1
2.435282729E0,-1.099557430E-2,-2.443460971E-1,-9.224065393E-2,2.614082173E-1
2.437204569E0,-7.330383174E-3,-2.370157093E-1,-8.796459436E-2,2.529188621E-1
2.439087652E0,-1.221730490E-3,-2.211332172E-1,-8.368854225E-2,2.364427298E-1
2.441387799E0,5.497787148E-3,-2.076941878E-1,-7.941248268E-2,2.224262658E-1
2.443154075E0,9.162978269E-3,-2.028072625E-1,-7.819075137E-2,2.175512342E-1
2.445379030E0,1.954768784E-2,-1.930334121E-1,-7.208210230E-2,2.069778726E-1
2.447262037E0,2.443460934E-2,-1.863138974E-1,-6.719517708E-2,1.995622968E-1
2.449548838E0,2.748893574E-2,-1.777617931E-1,-6.414084882E-2,1.909684403E-1
2.451368883E0,2.932153270E-2,-1.747074574E-1,-6.108652428E-2,1.873873299E-1
2.453650184E0,2.993239649E-2,-1.667662114E-1,-5.009094998E-2,1.766805617E-1
2.455648992E0,3.420845419E-2,-1.637118906E-1,-4.153883830E-2,1.723289777E-1
2.457718338E0,4.031710699E-2,-1.631010175E-1,-2.871066704E-2,1.704456319E-1
2.459532421E0,3.909537569E-2,-1.692096740E-1,-2.382374369E-2,1.752938474E-1
2.461769068E0,4.031710699E-2,-1.765400618E-1,-1.404990070E-2,1.816294642E-1
2.463582229E0,4.214970022E-2,-1.936442852E-1,-1.404990070E-2,1.986758821E-1
2.465890530E0,3.909537569E-2,-2.168571651E-1,-2.076941915E-2,2.213297251E-1
2.467688537E0,3.787364438E-2,-2.296853364E-1,-2.138028294E-2,2.337667281E-1
2.469928415E0,3.115412779E-2,-2.510656118E-1,-3.115412779E-2,2.549021397E-1
2.471802652E0,2.015855350E-2,-2.681698501E-1,-3.787364438E-2,2.715802804E-1
2.474142453E0,1.466076635E-2,-2.742784917E-1,-3.848451003E-2,2.773530000E-1
2.476142152E0,3.665191587E-3,-2.828305960E-1,-3.848451003E-2,2.854603951E-1
2.478092184E0,-5.497787148E-3,-2.840523422E-1,-3.237585723E-2,2.859443213E-1
2.479930345E0,-9.773843922E-3,-2.852740586E-1,-2.443460934E-2,2.864853690E-1
2.482273338E0,-1.038470957E-2,-2.809980214E-1,-1.710422710E-2,2.817095753E-1
2.484058575E0,-1.710422710E-2,-2.700024247E-1,-7.330383174E-3,2.706429354E-1
2.486263953E0,-1.954768784E-2,-2.492330223E-1,4.886921961E-3,2.500461828E-1
2.488115229E0,-2.076941915E-2,-2.412917763E-1,8.552113548E-3,2.423349515E-1
2.490433415E0,-2.260201424E-2,-2.180788964E-1,1.893682219E-2,2.200633076E-1
2.492267114E0,-2.382374369E-2,-1.924225539E-1,2.626720630E-2,1.956629146E-1
2.494534338E0,-2.382374369E-2,-1.704314053E-1,3.176499158E-2,1.749955696E-1
2.496529607E0,-2.199114859E-2,-1.569923609E-1,3.359758854E-2,1.620463204E-1
2.498596722E0,-2.015855350E-2,-1.350012124E-1,3.298672289E-2,1.404272712E-1
2.500395768E0,-1.893682219E-2,-1.123992056E-1,3.054326214E-2,1.180045572E-1
2.502648184E0,-1.527163107E-2,-9.224065393E-2,2.504547499E-2,9.679275164E-2
2.504466691E0,-1.343903504E-2,-8.429940045E-2,1.893682219E-2,8.743912061E-2
2.506770299E0,-4.276056774E-3,-7.024950534E-2,7.330383174E-3,7.076024434E-2
2.508563152E0,-6.108652451E-4,-5.436700583E-2,-3.054326167E-3,5.445616023E-2
2.510809145E0,3.054326167E-3,-4.520402849E-2,-1.038470957E-2,4.648198891E-2
2.512696537E0,7.330383174E-3,-3.176499158E-2,-2.565634064E-2,4.148490114E-2
2.515023761E0,1.221730467E-2,-1.649336144E-2,-3.665191308E-2,4.200781162E-2
2.517075344E0,1.710422710E-2,3.054326167E-3,-5.131268129E-2,5.417448434E-2
2.518973914E0,1.771509275E-2,7.330383174E-3,-5.619960278E-2,5.937974723E-2
2.520845998E0,1.893682219E-2,2.687807009E-2,-6.414084882E-2,7.207691984E-2
2.523158068E0,1.588249579E-2,4.642575979E-2,-7.330382615E-2,8.821029290E-2
2.524910652E0,1.832595654E-2,5.803219974E-2,-7.574728876E-2,9.716598502E-2
2.527149337E0,1.404990070E-2,7.635815442E-2,-8.063421398E-2,1.119367854E-1
2.529045421E0,1.160643995E-2,9.407325089E-2,-8.185594529E-2,1.252392980E-1
2.531319530E0,7.941247895E-3,1.062905490E-1,-7.941248268E-2,1.329175934E-1
2.533108075E0,3.054326167E-3,1.099557430E-1,-7.941248268E-2,1.356684809E-1
2.535421337E0,-1.221730490E-3,1.166752651E-1,-7.147123665E-2,1.368310922E-1
2.537417914E0,-5.497787148E-3,1.197295859E-1,-6.658431143E-2,1.371089710E-1
2.539486530E0,-9.162978269E-3,1.130100712E-1,-5.619960278E-2,1.265449790E-1
2.541312037E0,-9.773843922E-3,1.111774743E-1,-5.131268129E-2,1.228370875E-1
2.543537530E0,-9.773843922E-3,1.001819000E-1,-3.604105115E-2,1.069153800E-1
2.545363421E0,-7.330383174E-3,8.368854225E-2,-2.504547499E-2,8.766289089E-2
2.547658684E0,-7.941247895E-3,7.452555746E-2,-1.954768784E-2,7.745472376E-2
2.549468344E0,-6.108652335E-3,5.803219974E-2,-6.719517522E-3,5.873843508E-2
2.551697184E0,-4.886921961E-3,3.665191308E-2,4.886921961E-3,3.729781153E-2
2.553707768E0,1.221730490E-3,1.649336144E-2,1.404990070E-2,2.170076742E-2
2.555911991E0,1.221730490E-3,5.497787148E-3,2.260201424E-2,2.329311780E-2
2.557950768E0,4.886921961E-3,-1.588249579E-2,3.115412779E-2,3.530885664E-2
2.559863260E0,1.160643995E-2,-3.848451003E-2,3.909537569E-2,5.607330346E-2
2.561736652E0,1.404990070E-2,-4.764748737E-2,4.520402849E-2,6.716462576E-2
2.564043914E0,2.199114859E-2,-6.414084882E-2,5.009094998E-2,8.430161548E-2
2.565823883E0,2.687807009E-2,-8.307767659E-2,5.803219974E-2,1.048430599E-1
2.568034183E0,3.726277873E-2,-9.712757170E-2,6.597344577E-2,1.231859384E-1
2.569911344E0,3.909537569E-2,-1.014036313E-1,7.024950534E-2,1.294068694E-1
2.572202107E0,4.703662544E-2,-1.062905490E-1,7.941248268E-2,1.407709748E-1
2.574093191E0,5.314527452E-2,-1.105666086E-1,8.368854225E-2,1.485030883E-1
2.576303683E0,5.864306539E-2,-1.099557430E-1,9.040805697E-2,1.539574334E-1
2.578274991E0,6.536258012E-2,-1.099557430E-1,9.101892263E-2,1.569935558E-1
2.580341645E0,6.780604273E-2,-1.117883399E-1,9.285151958E-2,1.603611457E-1
2.582182883E0,7.208210230E-2,-1.069014147E-1,9.162978828E-2,1.581763574E-1
2.584373606E0,7.269296050E-2,-1.050688252E-1,9.224065393E-2,1.575819240E-1
2.586193998E0,7.635815442E-2,-1.026253626E-1,8.674286306E-2,1.545537353E-1
2.588460530E0,8.124507964E-2,-9.957103431E-2,7.941248268E-2,1.510678531E-1
2.590362306E0,8.246681094E-2,-9.468411654E-2,7.330382615E-2,1.453936304E-1
2.592498491E0,8.552113175E-2,-8.857546002E-2,6.780604273E-2,1.405600780E-1
2.594380152E0,8.368854225E-2,-8.124507964E-2,5.742133409E-2,1.300067101E-1
2.596712260E0,8.368854225E-2,-7.330382615E-2,4.642575979E-2,1.205511269E-1
2.598740152E0,8.552113175E-2,-6.597344577E-2,3.604105115E-2,1.138653454E-1
2.600662645E0,8.429940045E-2,-6.108652428E-2,2.809980139E-2,1.078311235E-1
2.602585075E0,8.307767659E-2,-4.948008433E-2,1.771509275E-2,9.830566415E-2
2.604844260E0,8.368854225E-2,-4.153883830E-2,6.108652335E-3,9.362992483E-2
2.606598037E0,8.246681094E-2,-3.726277873E-2,-1.832595794E-3,9.051324761E-2
2.608835145E0,8.063421398E-2,-2.871066704E-2,-1.099557430E-2,8.629647456E-2
2.610870683E0,7.635815442E-2,-2.076941915E-2,-2.138028294E-2,8.196982991E-2
2.612966799E0,7.208210230E-2,-1.466076635E-2,-3.237585723E-2,8.036767804E-2
2.614730998E0,7.147123665E-2,-9.773843922E-3,-3.543018550E-2,8.036767844E-2
2.617033722E0,6.902777404E-2,-4.886921961E-3,-4.153883830E-2,8.071053637E-2
2.619030145E0,6.108652428E-2,0.000000000E0,-4.764748737E-2,7.747158512E-2
2.621099029E0,6.230825558E-2,0.000000000E0,-5.070181563E-2,8.033052236E-2
2.622902421E0,5.742133409E-2,-1.832595794E-3,-5.436700583E-2,7.909702484E-2
2.625151222E0,5.192354694E-2,-1.832595794E-3,-5.497787148E-2,7.564376700E-2
2.626965037E0,4.825835302E-2,-9.162978269E-3,-5.803219974E-2,7.603002706E-2
2.629272876E0,4.886921868E-2,-1.282817032E-2,-5.497787148E-2,7.466812466E-2
2.631140152E0,4.703662544E-2,-2.382374369E-2,-5.497787148E-2,7.617467590E-2
2.633311376E0,4.642575979E-2,-3.115412779E-2,-5.070181563E-2,7.547585680E-2
2.635186152E0,4.703662544E-2,-3.909537569E-2,-4.886921868E-2,7.828852449E-2
2.637526183E0,4.581489414E-2,-5.070181563E-2,-4.764748737E-2,8.330643244E-2
2.639543883E0,4.764748737E-2,-6.536258012E-2,-3.970624134E-2,9.010624581E-2
2.641476952E0,4.825835302E-2,-7.941248268E-2,-3.359758854E-2,9.881300014E-2
2.643341114E0,5.192354694E-2,-8.796459436E-2,-2.993239649E-2,1.064414062E-1
2.645659068E0,5.314527452E-2,-1.032362282E-1,-2.321287990E-2,1.184102057E-1
2.647404767E0,5.558873713E-2,-1.185078546E-1,-1.771509275E-2,1.320910437E-1
2.649650106E0,5.192354694E-2,-1.252273768E-1,-1.466076635E-2,1.363557432E-1
2.651503921E0,5.864306539E-2,-1.325577646E-1,-6.108652335E-3,1.450788948E-1
2.653820029E0,6.230825558E-2,-1.441642046E-1,-1.832595794E-3,1.570636655E-1
2.655610575E0,6.047565863E-2,-1.521054506E-1,1.221730490E-3,1.636913743E-1
2.657922145E0,6.108652428E-2,-1.527163088E-1,5.497787148E-3,1.645723552E-1
2.659894575E0,6.414084882E-2,-1.624901593E-1,6.719517522E-3,1.748206288E-1
2.661984914E0,6.780604273E-2,-1.698205322E-1,6.719517522E-3,1.829803938E-1
2.663791575E0,6.963863969E-2,-1.734857261E-1,6.719517522E-3,1.870614584E-1
2.666036875E0,7.269296050E-2,-1.734857261E-1,5.497787148E-3,1.881802044E-1
2.667870421E0,7.696902007E-2,-1.765400618E-1,4.276056774E-3,1.926367258E-1
2.670159837E0,8.124507964E-2,-1.765400618E-1,3.665191587E-3,1.943722975E-1
2.671951614E0,8.246681094E-2,-1.771509200E-1,3.054326167E-3,1.954291490E-1
2.674198029E0,8.368854225E-2,-1.759291887E-1,-2.443460980E-3,1.948353717E-1
2.676070152E0,8.674286306E-2,-1.783726513E-1,-7.330383174E-3,1.984813884E-1
2.678413260E0,8.796459436E-2,-1.765400618E-1,-1.221730467E-2,1.976193964E-1
2.680411229E0,8.735372871E-2,-1.740965992E-1,-1.282817032E-2,1.952046663E-1
2.682364914E0,8.674286306E-2,-1.728748679E-1,-1.649336144E-2,1.941187142E-1
2.684223075E0,8.307767659E-2,-1.710422635E-1,-2.260201424E-2,1.914894444E-1
2.686547183E0,7.941248268E-2,-1.679879427E-1,-2.565634064E-2,1.875754225E-1
2.688308037E0,7.635815442E-2,-1.704314053E-1,-2.748893574E-2,1.887672462E-1
2.690538837E0,6.963863969E-2,-1.692096740E-1,-3.115412779E-2,1.856125901E-1
2.692453729E0,6.108652428E-2,-1.710422635E-1,-3.543018550E-2,1.850467979E-1
2.694710029E0,5.131268129E-2,-1.716531366E-1,-3.481931984E-2,1.825107548E-1
2.696510767E0,4.337143153E-2,-1.759291887E-1,-3.787364438E-2,1.851123266E-1
2.698813029E0,3.237585723E-2,-1.808161139E-1,-3.909537569E-2,1.878060478E-1
2.700811875E0,2.138028294E-2,-1.875356287E-1,-3.970624134E-2,1.928816065E-1
2.702882414E0,1.466076635E-2,-1.912008226E-1,-3.970624134E-2,1.958297174E-1
2.704673921E0,3.054326167E-3,-1.991420686E-1,-3.848451003E-2,2.028495746E-1
2.706933760E0,-9.773843922E-3,-2.021963894E-1,-3.909537569E-2,2.061731222E-1
2.708834191E0,-1.466076635E-2,-2.052507252E-1,-3.970624134E-2,2.095695203E-1
2.711055721E0,-2.443460934E-2,-2.089159191E-1,-3.787364438E-2,2.137225405E-1
2.712866114E0,-3.115412779E-2,-2.131919712E-1,-3.298672289E-2,2.179667868E-1
2.715094221E0,-3.787364438E-2,-2.162462920E-1,-3.115412779E-2,2.217373478E-1
2.716953229E0,-4.276056588E-2,-2.168571651E-1,-2.748893574E-2,2.227355778E-1
2.719309606E0,-4.398229718E-2,-2.193006277E-1,-2.565634064E-2,2.251343057E-1
2.721347691E0,-4.520402849E-2,-2.235766798E-1,-2.199114859E-2,2.291583439E-1
2.723261529E0,-4.948008433E-2,-2.254092693E-1,-1.649336144E-2,2.313647519E-1
2.725121344E0,-4.764748737E-2,-2.290744632E-1,-1.649336144E-2,2.345579326E-1
2.727443760E0,-4.825835302E-2,-2.272418737E-1,-1.160643995E-2,2.325993277E-1
2.729202844E0,-4.886921868E-2,-2.284636050E-1,-6.108652335E-3,2.337116493E-1
2.731434144E0,-4.825835302E-2,-2.290744632E-1,-4.886921961E-3,2.341534974E-1
2.733284344E0,-5.070181563E-2,-2.296853364E-1,-2.443460980E-3,2.352275459E-1
2.735603414E0,-4.764748737E-2,-2.315179259E-1,-1.221730490E-3,2.363732761E-1
2.737405421E0,-4.642575979E-2,-2.315179259E-1,0.000000000E0,2.361268751E-1
2.739704875E0,-4.520402849E-2,-2.333505303E-1,-1.221730490E-3,2.376917474E-1
2.741676837E0,-4.703662544E-2,-2.357939780E-1,6.108652451E-4,2.404404653E-1
2.743760606E0,-4.031710699E-2,-2.376265824E-1,1.832595794E-3,2.410295006E-1
2.745569306E0,-4.031710699E-2,-2.388483137E-1,-2.443460980E-3,2.422394612E-1
2.747795490E0,-3.604105115E-2,-2.443460971E-1,-6.719517522E-3,2.470812102E-1
2.749633460E0,-3.481931984E-2,-2.449569702E-1,-9.162978269E-3,2.475888981E-1
2.751916952E0,-3.359758854E-2,-2.535090744E-1,-1.710422710E-2,2.562970998E-1
2.753828383E0,-3.115412779E-2,-2.547308207E-1,-2.015855350E-2,2.574193815E-1
2.755955529E0,-2.687807009E-2,-2.553416789E-1,-2.260201424E-2,2.577453291E-1
2.757855575E0,-2.382374369E-2,-2.571742535E-1,-3.115412779E-2,2.601475487E-1
2.760170721E0,-1.893682219E-2,-2.547308207E-1,-3.665191308E-2,2.580499118E-1
2.762182575E0,-1.832595654E-2,-2.535090744E-1,-3.909537569E-2,2.571597556E-1
2.764120029E0,-1.466076635E-2,-2.559525371E-1,-4.642575979E-2,2.605417250E-1
2.765976883E0,-1.343903504E-2,-2.522873580E-1,-5.436700583E-2,2.584285008E-1
2.768301990E0,-9.162978269E-3,-2.504547536E-1,-5.986479297E-2,2.576729268E-1
2.770089152E0,-7.330383174E-3,-2.480112910E-1,-6.658431143E-2,2.568984343E-1
2.772292183E0,-5.497787148E-3,-2.431243658E-1,-7.330382615E-2,2.539943579E-1
2.774181229E0,-4.276056774E-3,-2.388483137E-1,-8.063421398E-2,2.521282969E-1
2.776461221E0,-2.443460980E-3,-2.382374406E-1,-8.735372871E-2,2.537591821E-1
2.778302460E0,2.443460980E-3,-2.339613885E-1,-9.773843735E-2,2.535679474E-1
2.780562798E0,4.886921961E-3,-2.309070677E-1,-1.056796908E-1,2.539884898E-1
2.782552344E0,9.773843922E-3,-2.247984111E-1,-1.197295859E-1,2.548823796E-1
2.784624413E0,1.221730467E-2,-2.235766798E-1,-1.233947799E-1,2.556600594E-1
2.786456614E0,1.282817032E-2,-2.138028294E-1,-1.264491081E-1,2.487279412E-1
2.788674721E0,1.710422710E-2,-2.040289938E-1,-1.362229437E-1,2.459208720E-1
2.790548267E0,2.015855350E-2,-2.009746730E-1,-1.380555481E-1,2.446559234E-1
2.792795721E0,2.138028294E-2,-1.905899495E-1,-1.374446750E-1,2.359505966E-1
2.794625075E0,2.687807009E-2,-1.808161139E-1,-1.374446750E-1,2.287092836E-1
2.796834683E0,3.298672289E-2,-1.673770845E-1,-1.350012124E-1,2.175512345E-1
2.798743690E0,3.420845419E-2,-1.637118906E-1,-1.325577646E-1,2.134089090E-1
2.801049606E0,3.909537569E-2,-1.557706445E-1,-1.319468915E-1,2.078531315E-1
2.803107644E0,4.459316283E-2,-1.508837193E-1,-1.246165112E-1,2.007080511E-1
2.805001336E0,4.703662544E-2,-1.466076523E-1,-1.209513173E-1,1.957944560E-1
2.806878883E0,5.131268129E-2,-1.514945775E-1,-1.142318025E-1,1.965515276E-1
2.809183183E0,5.742133409E-2,-1.539380401E-1,-1.044579595E-1,1.946935929E-1
2.810934729E0,6.047565863E-2,-1.600466967E-1,-9.529497474E-2,1.958401966E-1
2.813174298E0,6.352998316E-2,-1.649336219E-1,-9.407325089E-2,2.002222139E-1
2.815037267E0,6.780604273E-2,-1.740965992E-1,-8.307767659E-2,2.044729460E-1
2.817343875E0,7.147123665E-2,-1.875356287E-1,-7.574728876E-2,2.145120077E-1
2.819142614E0,7.208210230E-2,-1.960877478E-1,-7.024950534E-2,2.204114954E-1
2.821445375E0,7.391469181E-2,-2.021963894E-1,-6.719517708E-2,2.255259484E-1
2.823434421E0,7.941248268E-2,-2.119702399E-1,-5.864306539E-2,2.338305671E-1
2.825508606E0,8.307767659E-2,-2.199114859E-1,-5.436700583E-2,2.412855845E-1
2.827292114E0,8.246681094E-2,-2.241875380E-1,-5.314527452E-2,2.447146242E-1
2.829559913E0,8.124507964E-2,-2.302961946E-1,-4.703662544E-2,2.486956862E-1
2.831355344E0,8.246681094E-2,-2.370157093E-1,-4.398229718E-2,2.547776753E-1
2.833681836E0,8.307767659E-2,-2.419026345E-1,-4.153883830E-2,2.591220948E-1
2.835492383E0,8.368854225E-2,-2.425135076E-1,-3.970624134E-2,2.596019243E-1
2.837720029E0,8.552113175E-2,-2.467895597E-1,-3.909537569E-2,2.640973290E-1
2.839583575E0,8.796459436E-2,-2.474004179E-1,-3.787364438E-2,2.652906888E-1
2.841935221E0,8.735372871E-2,-2.443460971E-1,-3.359758854E-2,2.616571938E-1
2.843953267E0,8.796459436E-2,-2.443460971E-1,-3.604105115E-2,2.621864650E-1
2.845888067E0,8.735372871E-2,-2.406809032E-1,-3.481931984E-2,2.583996055E-1
2.847753190E0,8.857546002E-2,-2.351831198E-1,-3.909537569E-2,2.543327748E-1
2.850070452E0,8.979719132E-2,-2.309070677E-1,-3.787364438E-2,2.506312479E-1
2.851813267E0,9.101892263E-2,-2.266310006E-1,-3.970624134E-2,2.474320924E-1
2.854061144E0,8.918632567E-2,-2.168571651E-1,-4.153883830E-2,2.381316985E-1
2.856096067E0,9.101892263E-2,-2.101376504E-1,-4.459316283E-2,2.333041503E-1
2.858192105E0,9.407325089E-2,-2.052507252E-1,-4.581489414E-2,2.303836827E-1
2.859967883E0,9.468411654E-2,-1.942551434E-1,-4.948008433E-2,2.216944325E-1
2.862259336E0,9.285151958E-2,-1.838704348E-1,-5.497787148E-2,2.131954686E-1
2.864255028E0,9.285151958E-2,-1.789835095E-1,-5.619960278E-2,2.093200820E-1
2.866323952E0,9.101892263E-2,-1.716531366E-1,-5.925392732E-2,2.031262452E-1
2.868130037E0,9.162978828E-2,-1.618792862E-1,-6.291911751E-2,1.963663330E-1
2.870375490E0,8.857546002E-2,-1.588249654E-1,-6.841690838E-2,1.942983662E-1
2.872245844E0,8.613199741E-2,-1.545489132E-1,-6.658431143E-2,1.890437994E-1
2.874496298E0,8.735372871E-2,-1.508837193E-1,-7.208210230E-2,1.886594820E-1
2.876330344E0,8.552113175E-2,-1.490511149E-1,-7.208210230E-2,1.863489423E-1
2.878534605E0,8.552113175E-2,-1.508837193E-1,-7.208210230E-2,1.878179709E-1
2.880396229E0,8.185594529E-2,-1.521054506E-1,-7.269296050E-2,1.874052571E-1
2.882749490E0,8.307767659E-2,-1.576032341E-1,-7.513642311E-2,1.933550150E-1
2.884776690E0,8.368854225E-2,-1.631010175E-1,-7.391469181E-2,1.976590389E-1
2.886699144E0,8.307767659E-2,-1.631010175E-1,-7.208210230E-2,1.967223214E-1
2.888561960E0,8.552113175E-2,-1.649336219E-1,-7.330382615E-2,1.997258484E-1
2.890881221E0,8.491026610E-2,-1.649336219E-1,-7.147123665E-2,1.987988697E-1
2.892638344E0,8.674286306E-2,-1.649336219E-1,-6.902777404E-2,1.987265898E-1
2.894872413E0,8.429940045E-2,-1.649336219E-1,-6.658431143E-2,1.968323121E-1
2.896748806E0,8.674286306E-2,-1.624901593E-1,-6.230825558E-2,1.944471519E-1
2.899041759E0,8.674286306E-2,-1.563815027E-1,-5.925392732E-2,1.883892953E-1
2.900843229E0,8.735372871E-2,-1.563815027E-1,-5.803219974E-2,1.882912227E-1
2.903144028E0,8.613199741E-2,-1.539380401E-1,-5.192354694E-2,1.838795690E-1
2.905115605E0,8.918632567E-2,-1.496619880E-1,-4.825835302E-2,1.807810277E-1
2.907183951E0,8.735372871E-2,-1.466076523E-1,-4.337143153E-2,1.760839536E-1
2.909021806E0,8.735372871E-2,-1.453859210E-1,-4.092797264E-2,1.744787634E-1
2.911235067E0,8.918632567E-2,-1.466076523E-1,-3.604105115E-2,1.753481160E-1
2.913196575E0,8.979719132E-2,-1.441642046E-1,-3.298672289E-2,1.730172747E-1
2.915356528E0,8.918632567E-2,-1.472185254E-1,-2.871066704E-2,1.745044335E-1
2.917167421E0,8.735372871E-2,-1.490511149E-1,-2.626720630E-2,1.747480326E-1
2.919395759E0,9.101892263E-2,-1.527163088E-1,-2.443460934E-2,1.794540760E-1
2.921271883E0,8.918632567E-2,-1.557706445E-1,-2.382374369E-2,1.810697798E-1
2.923611067E0,9.162978828E-2,-1.582140923E-1,-2.321287990E-2,1.843001760E-1
2.925609306E0,9.040805697E-2,-1.612684280E-1,-2.443460934E-2,1.864890687E-1
2.927562413E0,8.857546002E-2,-1.643227488E-1,-2.443460934E-2,1.882674375E-1
2.929412575E0,8.796459436E-2,-1.661553532E-1,-2.260201424E-2,1.893573931E-1
2.931745451E0,8.613199741E-2,-1.643227488E-1,-2.443460934E-2,1.871302671E-1
2.933501921E0,8.307767659E-2,-1.661553532E-1,-2.076941915E-2,1.869247723E-1
2.935737028E0,8.063421398E-2,-1.631010175E-1,-2.015855350E-2,1.830578751E-1
2.937641883E0,7.819075137E-2,-1.643227488E-1,-2.015855350E-2,1.830904876E-1
2.939905759E0,7.757988572E-2,-1.606575549E-1,-1.832595654E-2,1.793469523E-1
2.941715690E0,7.391469181E-2,-1.637118906E-1,-1.771509275E-2,1.804959537E-1
2.944006951E0,7.086037099E-2,-1.600466967E-1,-1.832595654E-2,1.759885734E-1
2.945993229E0,7.086037099E-2,-1.600466967E-1,-1.893682219E-2,1.760532321E-1
2.948072874E0,7.086037099E-2,-1.588249654E-1,-2.015855350E-2,1.750797792E-1
2.949865690E0,6.719517708E-2,-1.563815027E-1,-2.076941915E-2,1.714693413E-1
2.952123451E0,6.597344577E-2,-1.551597714E-1,-2.076941915E-2,1.698776589E-1
2.953927844E0,6.475171447E-2,-1.508837193E-1,-1.893682219E-2,1.652794135E-1
2.956244451E0,6.291911751E-2,-1.472185254E-1,-1.893682219E-2,1.612163540E-1
2.958092613E0,6.536258012E-2,-1.496619880E-1,-2.076941915E-2,1.646279026E-1
2.960281990E0,6.475171447E-2,-1.527163088E-1,-2.260201424E-2,1.674093981E-1
2.962187190E0,6.597344577E-2,-1.502728462E-1,-2.748893574E-2,1.664033216E-1
2.964496067E0,6.475171447E-2,-1.490511149E-1,-3.237585723E-2,1.657021892E-1
2.966539613E0,6.475171447E-2,-1.453859210E-1,-3.359758854E-2,1.626611463E-1
2.968445451E0,6.230825558E-2,-1.398881376E-1,-3.420845419E-2,1.569115295E-1
2.970347575E0,6.108652428E-2,-1.392772794E-1,-3.726277873E-2,1.565830089E-1
2.972627451E0,5.986479297E-2,-1.374446750E-1,-3.726277873E-2,1.544776579E-1
2.974391498E0,5.742133409E-2,-1.350012124E-1,-3.726277873E-2,1.513639707E-1
2.976618528E0,6.108652428E-2,-1.356120855E-1,-3.848451003E-2,1.536335207E-1
2.978504036E0,5.864306539E-2,-1.362229437E-1,-3.420845419E-2,1.522035408E-1
2.980788413E0,6.108652428E-2,-1.404990107E-1,-3.359758854E-2,1.568449343E-1
2.982596229E0,6.414084882E-2,-1.423316002E-1,-3.115412779E-2,1.591945746E-1
2.984890797E0,6.475171447E-2,-1.478293836E-1,-2.993239649E-2,1.641409746E-1
2.986871152E0,6.902777404E-2,-1.551597714E-1,-2.565634064E-2,1.717487586E-1
2.988954874E0,6.902777404E-2,-1.594358236E-1,-2.321287990E-2,1.752810692E-1
2.990756998E0,7.147123665E-2,-1.618792862E-1,-2.199114859E-2,1.783161562E-1
2.993006836E0,7.086037099E-2,-1.637118906E-1,-1.954768784E-2,1.794572021E-1
2.994898498E0,7.208210230E-2,-1.667662114E-1,-1.771509275E-2,1.825393745E-1
2.997128720E0,7.086037099E-2,-1.673770845E-1,-1.649336144E-2,1.825056480E-1
2.998946960E0,7.330382615E-2,-1.704314053E-1,-2.076941915E-2,1.866860563E-1
3.001167566E0,7.574728876E-2,-1.704314053E-1,-1.954768784E-2,1.875276720E-1
3.003060921E0,7.086037099E-2,-1.728748679E-1,-1.771509275E-2,1.876718856E-1
3.005382297E0,7.147123665E-2,-1.747074574E-1,-1.832595654E-2,1.896488176E-1
3.007412536E0,7.269296050E-2,-1.771509200E-1,-1.527163107E-2,1.920935649E-1
3.009335605E0,6.963863969E-2,-1.759291887E-1,-1.160643995E-2,1.895661600E-1
3.011195344E0,7.330382615E-2,-1.765400618E-1,-1.038470957E-2,1.914358549E-1
3.013517836E0,7.024950534E-2,-1.765400618E-1,-3.054326167E-3,1.900281962E-1
3.015253536E0,6.597344577E-2,-1.734857261E-1,-1.832595794E-3,1.856156004E-1
3.017508528E0,6.536258012E-2,-1.698205322E-1,-1.832595794E-3,1.819742796E-1
3.019368844E0,6.108652428E-2,-1.673770845E-1,0.000000000E0,1.781759015E-1
3.021678528E0,6.108652428E-2,-1.673770845E-1,3.054326167E-3,1.782020785E-1
3.023481306E0,5.925392732E-2,-1.612684280E-1,7.330383174E-3,1.719658928E-1
3.025779566E0,5.742133409E-2,-1.582140923E-1,1.466076635E-2,1.689492429E-1
3.027775374E0,6.169738993E-2,-1.569923609E-1,1.282817032E-2,1.691677607E-1
3.029842836E0,5.558873713E-2,-1.527163088E-1,1.527163107E-2,1.632348045E-1
3.031648536E0,5.864306539E-2,-1.478293836E-1,1.710422710E-2,1.599534006E-1
3.033893836E0,5.864306539E-2,-1.466076523E-1,1.588249579E-2,1.586980356E-1
3.035713998E0,5.742133409E-2,-1.423316002E-1,1.404990070E-2,1.541197383E-1
3.038015605E0,6.047565863E-2,-1.404990107E-1,1.527163107E-2,1.537221520E-1
3.039867190E0,6.291911751E-2,-1.380555481E-1,7.330383174E-3,1.518943192E-1
3.042053682E0,6.230825558E-2,-1.350012124E-1,5.497787148E-3,1.487880093E-1
3.043935652E0,6.230825558E-2,-1.252273768E-1,6.108652451E-4,1.398734706E-1
3.046268105E0,6.230825558E-2,-1.160643995E-1,-7.330383174E-3,1.319355830E-1
3.048266652E0,6.536258012E-2,-1.081231460E-1,-1.588249579E-2,1.273386636E-1
3.050216528E0,6.352998316E-2,-1.032362282E-1,-1.588249579E-2,1.222539621E-1
3.052094960E0,6.902777404E-2,-9.346238524E-2,-2.076941915E-2,1.180314357E-1
3.054398143E0,7.024950534E-2,-9.040805697E-2,-2.443460934E-2,1.170711745E-1
3.056136921E0,7.208210230E-2,-9.285151958E-2,-2.321287990E-2,1.198168267E-1
3.058388105E0,7.208210230E-2,-8.979719132E-2,-2.382374369E-2,1.175879918E-1
3.060284075E0,7.269296050E-2,-8.918632567E-2,-2.321287990E-2,1.173767651E-1
3.062557412E0,7.452555746E-2,-9.101892263E-2,-2.076941915E-2,1.194565685E-1
3.064353921E0,7.147123665E-2,-9.162978828E-2,-2.321287990E-2,1.185031373E-1
3.066658297E0,7.086037099E-2,-9.224065393E-2,-2.382374369E-2,1.187312140E-1
3.068629451E0,6.902777404E-2,-9.590584040E-2,-1.832595654E-2,1.195767724E-1
3.070695258E0,6.475171447E-2,-9.834930301E-2,-1.466076635E-2,1.186604736E-1
3.072507075E0,6.169738993E-2,-9.896016866E-2,-1.466076635E-2,1.175356158E-1
3.074744912E0,6.169738993E-2,-1.001819000E-1,-1.160643995E-2,1.182272830E-1
3.076631729E0,5.619960278E-2,-9.712757170E-2,-6.108652335E-3,1.123809422E-1
3.078866489E0,5.681046844E-2,-9.773843735E-2,-1.832595794E-3,1.130645385E-1
3.080723613E0,5.558873713E-2,-1.014036313E-1,3.054326167E-3,1.156811698E-1
3.082903643E0,5.803219974E-2,-1.062905490E-1,1.282817032E-2,1.217784011E-1
3.084798036E0,5.925392732E-2,-1.130100712E-1,1.832595654E-2,1.289113834E-1
3.087117720E0,6.291911751E-2,-1.148426682E-1,2.076941915E-2,1.325859063E-1
3.089112152E0,6.475171447E-2,-1.258382350E-1,2.138028294E-2,1.431263862E-1
3.091068220E0,6.597344577E-2,-1.301143020E-1,2.443460934E-2,1.479164537E-1
3.092948075E0,6.658431143E-2,-1.337794960E-1,2.626720630E-2,1.517247185E-1
3.095249912E0,6.841690838E-2,-1.398881376E-1,2.748893574E-2,1.581303449E-1
3.097003690E0,7.086037099E-2,-1.374446750E-1,2.443460934E-2,1.565544026E-1
3.099239451E0,6.902777404E-2,-1.392772794E-1,2.504547499E-2,1.574492615E-1
3.101273643E0,7.024950534E-2,-1.362229437E-1,2.565634064E-2,1.554024813E-1
3.103368528E0,7.330382615E-2,-1.288925707E-1,2.809980139E-2,1.509183374E-1
3.105121421E0,7.635815442E-2,-1.282816976E-1,2.809980139E-2,1.519090535E-1
3.107434066E0,8.552113175E-2,-1.276708394E-1,2.871066704E-2,1.563266120E-1
3.109419767E0,8.796459436E-2,-1.252273768E-1,2.993239649E-2,1.559346470E-1
3.111495874E0,9.407325089E-2,-1.209513173E-1,2.748893574E-2,1.556747869E-1
3.113309190E0,1.001819000E-1,-1.246165112E-1,2.382374369E-2,1.616578445E-1
3.115545681E0,1.020144969E-1,-1.264491081E-1,2.321287990E-2,1.641193844E-1
3.117370729E0,1.026253626E-1,-1.240056455E-1,1.893682219E-2,1.620739597E-1
3.119666797E0,1.007927656E-1,-1.185078546E-1,1.649336144E-2,1.564459146E-1
3.121635451E0,1.007927656E-1,-1.148426682E-1,1.038470957E-2,1.531530680E-1
3.123704220E0,1.026253626E-1,-1.001819000E-1,6.719517522E-3,1.435741273E-1
3.125592652E0,1.026253626E-1,-9.101892263E-2,1.832595794E-3,1.371851586E-1
3.127919104E0,1.044579595E-1,-8.002334833E-2,-1.221730490E-3,1.315929110E-1
3.129944729E0,1.111774743E-1,-6.719517708E-2,-3.665191587E-3,1.299579018E-1
3.131870797E0,1.136209369E-1,-6.536258012E-2,-7.330383174E-3,1.312848761E-1
3.133832498E0,1.191187203E-1,-6.108652428E-2,-7.941247895E-3,1.341040506E-1
3.136052143E0,1.233947799E-1,-5.803219974E-2,-1.221730467E-2,1.369060643E-1
3.137973835E0,1.252273768E-1,-5.375614017E-2,-1.343903504E-2,1.369387680E-1
3.140042220E0,1.246165112E-1,-5.009094998E-2,-2.138028294E-2,1.359981420E-1
3.141983998E0,1.246165112E-1,-5.375614017E-2,-2.504547499E-2,1.380082363E-1
3.144211066E0,1.258382350E-1,-5.436700583E-2,-3.115412779E-2,1.405760022E-1
3.146029690E0,1.246165112E-1,-5.497787148E-2,-3.054326214E-2,1.395877218E-1
3.148311412E0,1.215621829E-1,-5.497787148E-2,-3.237585723E-2,1.372884802E-1
3.150307489E0,1.209513173E-1,-5.192354694E-2,-2.809980139E-2,1.345915105E-1
3.152373104E0,1.240056455E-1,-4.948008433E-2,-2.626720630E-2,1.360722051E-1
3.154194729E0,1.258382350E-1,-5.375614017E-2,-2.199114859E-2,1.385950743E-1
3.156424797E0,1.288925707E-1,-5.314527452E-2,-1.588249579E-2,1.403209488E-1
3.158294998E0,1.307251602E-1,-5.619960278E-2,-1.588249579E-2,1.431772208E-1
3.160546989E0,1.295034289E-1,-5.192354694E-2,-9.773843922E-3,1.398667968E-1
3.162379306E0,1.313360333E-1,-5.314527452E-2,-9.773843922E-3,1.420179632E-1
3.164585181E0,1.313360333E-1,-5.619960278E-2,-1.343903504E-2,1.434857368E-1
3.166620220E0,1.331686229E-1,-5.925392732E-2,-1.649336144E-2,1.466865399E-1
3.168800450E0,1.301143020E-1,-5.558873713E-2,-2.138028294E-2,1.430977141E-1
3.170810421E0,1.295034289E-1,-5.742133409E-2,-3.054326214E-2,1.449180409E-1
3.172750373E0,1.240056455E-1,-5.558873713E-2,-3.176499158E-2,1.395583122E-1
3.174645152E0,1.233947799E-1,-4.948008433E-2,-3.420845419E-2,1.372762499E-1
3.176933104E0,1.258382350E-1,-4.948008433E-2,-3.665191308E-2,1.400960487E-1
3.178825613E0,1.264491081E-1,-4.153883830E-2,-3.481931984E-2,1.375762954E-1
3.180923489E0,1.258382350E-1,-3.909537569E-2,-3.543018550E-2,1.364514853E-1
3.182839421E0,1.282816976E-1,-3.237585723E-2,-2.748893574E-2,1.351296846E-1
3.185094258E0,1.313360333E-1,-2.993239649E-2,-2.076941915E-2,1.362955274E-1
3.186924229E0,1.374446750E-1,-2.871066704E-2,-1.343903504E-2,1.410529998E-1
3.189196566E0,1.374446750E-1,-2.687807009E-2,-1.282817032E-2,1.406343887E-1
3.191196373E0,1.380555481E-1,-2.565634064E-2,-1.038470957E-2,1.408027853E-1
3.193266027E0,1.435533315E-1,-3.054326214E-2,-1.099557430E-2,1.471779620E-1
3.195201258E0,1.411098689E-1,-3.970624134E-2,-1.404990070E-2,1.472616053E-1
3.197318143E0,1.429424733E-1,-4.459316283E-2,-1.710422710E-2,1.507105020E-1
3.199148344E0,1.423316002E-1,-5.009094998E-2,-2.321287990E-2,1.526637661E-1
3.201442066E0,1.404990107E-1,-6.108652428E-2,-2.687807009E-2,1.555440970E-1
3.203271113E0,1.368338168E-1,-6.536258012E-2,-3.237585723E-2,1.550611377E-1
3.205480489E0,1.337794960E-1,-6.780604273E-2,-3.543018550E-2,1.541100614E-1
3.207361113E0,1.301143020E-1,-7.208210230E-2,-3.848451003E-2,1.536444551E-1
3.209697143E0,1.270599663E-1,-7.819075137E-2,-3.909537569E-2,1.542286518E-1
3.211720536E0,1.246165112E-1,-7.635815442E-2,-3.970624134E-2,1.514477738E-1
3.213649066E0,1.233947799E-1,-8.063421398E-2,-3.848451003E-2,1.523456782E-1
3.215502690E0,1.160643995E-1,-8.246681094E-2,-3.481931984E-2,1.465745707E-1
3.217832450E0,1.105666086E-1,-8.124507964E-2,-2.993239649E-2,1.404339213E-1
3.219593459E0,1.117883399E-1,-8.124507964E-2,-3.054326214E-2,1.415283956E-1
3.221823950E0,1.044579595E-1,-8.368854225E-2,-3.420845419E-2,1.381501203E-1
3.223677459E0,1.001819000E-1,-8.429940045E-2,-3.176499158E-2,1.347286780E-1
3.225995142E0,9.712757170E-2,-8.063421398E-2,-3.298672289E-2,1.304751529E-1
3.227820036E0,8.735372871E-2,-8.063421398E-2,-3.359758854E-2,1.235368299E-1
3.230097027E0,7.757988572E-2,-7.941248268E-2,-3.787364438E-2,1.173004434E-1
3.232069412E0,7.024950534E-2,-7.330382615E-2,-4.337143153E-2,1.104061819E-1
3.234135950E0,6.291911751E-2,-6.963863969E-2,-4.520402849E-2,1.041717797E-1
3.236069536E0,5.131268129E-2,-5.925392732E-2,-4.581489414E-2,9.079109917E-2
3.238186796E0,3.848451003E-2,-4.886921868E-2,-4.703662544E-2,7.798526899E-2
3.240014459E0,3.115412779E-2,-4.031710699E-2,-4.703662544E-2,6.934329764E-2
3.242309450E0,2.138028294E-2,-2.932153270E-2,-4.764748737E-2,5.989283623E-2
3.244136844E0,9.162978269E-3,-1.710422710E-2,-5.009094998E-2,5.371794882E-2
3.246348373E0,-1.221730490E-3,-7.941247895E-3,-5.253441259E-2,5.314527778E-2
3.248348652E0,-5.497787148E-3,-4.276056774E-3,-5.131268129E-2,5.178321722E-2
