"Time (s)","Gyroscope x (rad/s)","Gyroscope y (rad/s)","Gyroscope z (rad/s)","Absolute (rad/s)"
5.764500000E-3,2.504547499E-2,4.153883830E-2,0.000000000E0,4.850516369E-2
7.995626000E-3,2.443460934E-2,4.153883830E-2,0.000000000E0,4.819258471E-2
9.964038000E-3,2.015855350E-2,3.359758854E-2,2.443460980E-3,3.925730169E-2
1.209835700E-2,1.588249579E-2,2.809980139E-2,6.108652451E-4,3.228352005E-2
1.402111500E-2,1.527163107E-2,2.015855350E-2,6.108652451E-4,2.529749298E-2
1.620235700E-2,1.221730467E-2,1.771509275E-2,6.108652451E-4,2.152812581E-2
1.834543400E-2,6.719517522E-3,9.162978269E-3,3.054326167E-3,1.176609514E-2
2.026620300E-2,-6.108652451E-4,4.886921961E-3,3.665191587E-3,6.139119804E-3
2.216726900E-2,-1.832595794E-3,2.443460980E-3,3.054326167E-3,4.319469556E-3
2.437785700E-2,-6.719517522E-3,-6.108652451E-4,3.054326167E-3,7.406347305E-3
2.622050000E-2,-1.404990070E-2,-1.832595794E-3,5.497787148E-3,1.519815056E-2
2.843847200E-2,-1.954768784E-2,-1.832595794E-3,4.886921961E-3,2.023246188E-2
3.042542300E-2,-1.771509275E-2,-5.497787148E-3,5.497787148E-3,1.934620992E-2
3.254066500E-2,-2.138028294E-2,-2.443460980E-3,8.552113548E-3,2.315654651E-2
3.478861500E-2,-2.015855350E-2,-3.665191587E-3,7.941247895E-3,2.197417408E-2
3.660470300E-2,-2.260201424E-2,-3.054326167E-3,8.552113548E-3,2.435813216E-2
3.866651100E-2,-2.382374369E-2,-3.054326167E-3,7.941247895E-3,2.529749177E-2
4.062866500E-2,-2.015855350E-2,-3.054326167E-3,9.773843922E-3,2.261026785E-2
4.248438400E-2,-1.893682219E-2,-4.886921961E-3,7.941247895E-3,2.110802357E-2
4.473901100E-2,-2.015855350E-2,-7.941247895E-3,1.282817032E-2,2.517921069E-2
4.658480700E-2,-1.404990070E-2,-6.108652335E-3,9.162978269E-3,1.785148491E-2
4.879904900E-2,-1.221730467E-2,-4.886921961E-3,1.038470957E-2,1.676265888E-2
5.069561500E-2,-8.552113548E-3,-4.886921961E-3,7.941247895E-3,1.265243338E-2
5.290062600E-2,-5.497787148E-3,-3.665191587E-3,6.108652335E-3,8.998606905E-3
5.482738400E-2,-3.665191587E-3,-1.832595794E-3,6.719517522E-3,7.870448045E-3
5.700270300E-2,-1.221730490E-3,-6.108652451E-4,5.497787148E-3,5.664931179E-3
5.914539500E-2,-1.832595794E-3,-1.221730490E-3,3.665191587E-3,4.276056840E-3
6.104551100E-2,-6.108652451E-4,3.054326167E-3,4.886921961E-3,5.795176523E-3
6.289757700E-2,-4.276056774E-3,6.108652451E-4,5.497787148E-3,6.991672290E-3
6.515554900E-2,-2.443460980E-3,-2.443460980E-3,1.832595794E-3,3.911446084E-3
6.699250000E-2,-1.221730490E-3,1.221730490E-3,3.054326167E-3,3.509153618E-3
6.921428000E-2,0.000000000E0,-4.886921961E-3,3.665191587E-3,6.108652521E-3
7.111250000E-2,2.443460980E-3,-8.552113548E-3,1.221730490E-3,8.977849024E-3
7.331531800E-2,2.443460980E-3,-9.162978269E-3,-6.108652451E-4,9.502832666E-3
7.522857700E-2,4.276056774E-3,-9.162978269E-3,0.000000000E0,1.011161868E-2
7.741689500E-2,3.054326167E-3,-1.527163107E-2,-2.443460980E-3,1.576458453E-2
7.951389500E-2,6.719517522E-3,-1.466076635E-2,6.108652451E-4,1.613887053E-2
8.147328000E-2,3.054326167E-3,-1.527163107E-2,6.108652451E-4,1.558604441E-2
8.338500000E-2,4.886921961E-3,-1.771509275E-2,0.000000000E0,1.837679290E-2
8.558401100E-2,1.221730490E-3,-1.832595654E-2,-6.108652451E-4,1.837679147E-2
8.744884600E-2,1.221730490E-3,-1.771509275E-2,-1.221730490E-3,1.779915059E-2
8.964466400E-2,-3.054326167E-3,-1.771509275E-2,0.000000000E0,1.797646849E-2
9.154603800E-2,-3.665191587E-3,-2.015855350E-2,1.832595794E-3,2.057083654E-2
9.374770300E-2,-9.162978269E-3,-1.954768784E-2,3.665191587E-3,2.189762316E-2
9.569403800E-2,-9.773843922E-3,-2.138028294E-2,3.054326167E-3,2.370597882E-2
9.785131800E-2,-1.282817032E-2,-2.015855350E-2,3.665191587E-3,2.417359845E-2
1.000099340E-1,-1.710422710E-2,-2.015855350E-2,4.276056774E-3,2.678071181E-2
1.019111640E-1,-1.649336144E-2,-1.954768784E-2,4.276056774E-3,2.593121157E-2
1.037740000E-1,-2.076941915E-2,-2.015855350E-2,4.276056774E-3,2.925783164E-2
1.060276260E-1,-2.138028294E-2,-2.015855350E-2,6.108652335E-3,3.001332056E-2
1.078554610E-1,-2.321287990E-2,-2.076941915E-2,5.497787148E-3,3.162960999E-2
1.100835490E-1,-2.321287990E-2,-2.138028294E-2,5.497787148E-3,3.203404369E-2
1.119943460E-1,-2.504547499E-2,-2.260201424E-2,3.054326167E-3,3.387411658E-2
1.141863570E-1,-2.626720630E-2,-2.321287990E-2,1.832595794E-3,3.510216983E-2
1.161177300E-1,-2.321287990E-2,-2.321287990E-2,1.221730490E-3,3.285069575E-2
1.182914720E-1,-2.504547499E-2,-2.504547499E-2,1.221730490E-3,3.544071473E-2
1.203902800E-1,-2.138028294E-2,-2.565634064E-2,3.054326167E-3,3.353644618E-2
1.223547030E-1,-2.260201424E-2,-3.115412779E-2,6.108652451E-4,3.849420583E-2
1.242274230E-1,-2.199114859E-2,-3.054326214E-2,1.832595794E-3,3.768102819E-2
1.264716260E-1,-2.260201424E-2,-3.298672289E-2,0.000000000E0,3.998718463E-2
1.283277300E-1,-1.710422710E-2,-3.359758854E-2,0.000000000E0,3.770082944E-2
1.305287800E-1,-1.527163107E-2,-3.420845419E-2,-6.108652451E-4,3.746750872E-2
1.324626530E-1,-1.527163107E-2,-3.420845419E-2,-2.443460980E-3,3.754213040E-2
1.346324720E-1,-1.588249579E-2,-3.787364438E-2,0.000000000E0,4.106904688E-2
1.365610380E-1,-1.404990070E-2,-4.092797264E-2,-6.108652451E-4,4.327668900E-2
1.387361640E-1,-9.162978269E-3,-4.092797264E-2,-4.276056774E-3,4.215855521E-2
1.408789720E-1,-1.099557430E-2,-4.337143153E-2,-1.221730490E-3,4.476020948E-2
1.427798180E-1,-9.773843922E-3,-4.398229718E-2,-3.054326167E-3,4.515860271E-2
1.446360770E-1,-7.330383174E-3,-4.825835302E-2,-3.665191587E-3,4.894932873E-2
1.468964330E-1,-4.886921961E-3,-4.886921868E-2,-4.276056774E-3,4.929875457E-2
1.487432300E-1,-3.665191587E-3,-5.009094998E-2,-6.719517522E-3,5.067236737E-2
1.509534330E-1,-3.054326167E-3,-4.703662544E-2,-4.276056774E-3,4.732924786E-2
1.528543070E-1,-4.886921961E-3,-4.886921868E-2,-5.497787148E-3,4.941971473E-2
1.550579330E-1,-1.832595794E-3,-4.642575979E-2,-4.886921961E-3,4.671821471E-2
1.569889610E-1,-5.497787148E-3,-4.703662544E-2,-5.497787148E-3,4.767489340E-2
1.591616640E-1,-3.665191587E-3,-4.886921868E-2,-5.497787148E-3,4.931389081E-2
1.612584720E-1,-1.832595794E-3,-4.764748737E-2,-4.886921961E-3,4.793248863E-2
1.632192030E-1,-3.665191587E-3,-4.459316283E-2,-6.719517522E-3,4.524528392E-2
1.651213840E-1,-3.665191587E-3,-4.398229718E-2,-4.276056774E-3,4.434141130E-2
1.673348950E-1,-4.886921961E-3,-4.214970022E-2,-4.276056774E-3,4.264696820E-2
1.692759610E-1,-5.497787148E-3,-4.214970022E-2,-5.497787148E-3,4.286080443E-2
1.713902410E-1,-7.330383174E-3,-4.153883830E-2,-5.497787148E-3,4.253745724E-2
1.732937300E-1,-1.038470957E-2,-3.848451003E-2,-4.886921961E-3,4.015945358E-2
1.754928180E-1,-1.160643995E-2,-3.970624134E-2,-4.886921961E-3,4.165545650E-2
1.774282300E-1,-1.221730467E-2,-3.848451003E-2,-3.054326167E-3,4.049257900E-2
1.795956260E-1,-1.710422710E-2,-3.726277873E-2,-3.054326167E-3,4.111445210E-2
1.817385490E-1,-1.832595654E-2,-3.970624134E-2,-4.276056774E-3,4.393985601E-2
1.836387410E-1,-1.954768784E-2,-3.970624134E-2,2.443460980E-3,4.432457786E-2
1.854993460E-1,-2.382374369E-2,-4.153883830E-2,6.108652451E-4,4.788965448E-2
1.877544720E-1,-2.199114859E-2,-4.459316283E-2,1.832595794E-3,4.975458969E-2
1.896006530E-1,-2.443460934E-2,-4.581489414E-2,3.054326167E-3,5.201330183E-2
1.918096260E-1,-2.748893574E-2,-4.703662544E-2,3.665191587E-3,5.460329066E-2
1.936928840E-1,-2.748893574E-2,-5.009094998E-2,4.886921961E-3,5.734655059E-2
1.959120870E-1,-2.932153270E-2,-5.192354694E-2,4.276056774E-3,5.978370738E-2
1.978548070E-1,-2.626720630E-2,-5.497787148E-2,1.832595794E-3,6.095810763E-2
2.000158950E-1,-2.809980139E-2,-5.619960278E-2,1.832595794E-3,6.285978522E-2
2.021130490E-1,-2.443460934E-2,-5.558873713E-2,4.886921961E-3,6.091830460E-2
2.040747020E-1,-2.321287990E-2,-5.864306539E-2,1.221730490E-3,6.308200645E-2
2.059434230E-1,-2.321287990E-2,-5.803219974E-2,3.054326167E-3,6.257717562E-2
2.081913180E-1,-2.504547499E-2,-6.108652428E-2,3.054326167E-3,6.609211885E-2
2.101787410E-1,-2.504547499E-2,-6.230825558E-2,3.054326167E-3,6.722293834E-2
2.122476250E-1,-2.138028294E-2,-6.352998316E-2,1.221730490E-3,6.704228430E-2
2.142825870E-1,-2.260201424E-2,-6.475171447E-2,4.276056774E-3,6.871622979E-2
2.163515870E-1,-1.649336144E-2,-6.719517708E-2,1.832595794E-3,6.921402460E-2
2.182845000E-1,-1.466076635E-2,-6.963863969E-2,4.886921961E-3,7.133274293E-2
2.204550100E-1,-1.282817032E-2,-7.147123665E-2,4.886921961E-3,7.277761763E-2
2.225978180E-1,-9.773843922E-3,-7.147123665E-2,4.276056774E-3,7.226306355E-2
2.244976640E-1,-6.719517522E-3,-7.635815442E-2,3.665191587E-3,7.674081894E-2
2.264083840E-1,-2.443460980E-3,-7.757988572E-2,5.497787148E-3,7.781281921E-2
2.286129330E-1,-1.221730490E-3,-7.880161703E-2,4.276056774E-3,7.892700509E-2
2.304468460E-1,3.665191587E-3,-7.941248268E-2,6.108652451E-4,7.949936598E-2
2.326680480E-1,6.719517522E-3,-7.941248268E-2,2.443460980E-3,7.973371196E-2
2.346373840E-1,1.282817032E-2,-7.696902007E-2,3.665191587E-3,7.811674362E-2
2.367704720E-1,1.343903504E-2,-7.391469181E-2,3.054326167E-3,7.518855123E-2
2.387668460E-1,1.954768784E-2,-7.330382615E-2,3.054326167E-3,7.592688547E-2
2.408726640E-1,1.893682219E-2,-6.719517708E-2,4.276056774E-3,6.994340368E-2
2.429701250E-1,2.015855350E-2,-6.536258012E-2,3.054326167E-3,6.846870137E-2
2.449304720E-1,1.893682219E-2,-5.925392732E-2,4.276056774E-3,6.235315388E-2
2.468540380E-1,2.015855350E-2,-5.253441259E-2,3.665191587E-3,5.638852201E-2
2.490458560E-1,1.893682219E-2,-4.520402849E-2,5.497787148E-3,4.931767523E-2
2.509080380E-1,1.954768784E-2,-4.276056588E-2,5.497787148E-3,4.733712874E-2
2.531011250E-1,1.771509275E-2,-4.031710699E-2,3.665191587E-3,4.418967364E-2
2.550660760E-1,1.588249579E-2,-3.237585723E-2,6.108652335E-3,3.657547590E-2
2.572037790E-1,1.649336144E-2,-3.176499158E-2,5.497787148E-3,3.621148057E-2
2.591436150E-1,1.282817032E-2,-3.237585723E-2,6.108652335E-3,3.535638159E-2
2.613061250E-1,1.160643995E-2,-2.871066704E-2,5.497787148E-3,3.145214641E-2
2.634482020E-1,8.552113548E-3,-2.626720630E-2,8.552113548E-3,2.891787369E-2
2.653478560E-1,8.552113548E-3,-2.626720630E-2,8.552113548E-3,2.891787369E-2
2.672096150E-1,4.276056774E-3,-2.748893574E-2,1.160643995E-2,3.014358469E-2
2.694631250E-1,4.276056774E-3,-2.932153270E-2,8.552113548E-3,3.084113466E-2
2.713120380E-1,2.443460980E-3,-2.932153270E-2,1.160643995E-2,3.162961001E-2
2.735178560E-1,6.108652451E-4,-2.932153270E-2,1.099557430E-2,3.132136795E-2
2.754090760E-1,-1.221730490E-3,-2.871066704E-2,1.099557430E-2,3.076845270E-2
2.776202410E-1,-6.108652451E-4,-2.871066704E-2,1.221730467E-2,3.120798122E-2
2.798813840E-1,-1.832595794E-3,-2.932153270E-2,1.221730467E-2,3.181781294E-2
2.816858180E-1,-6.108652451E-4,-2.871066704E-2,1.099557430E-2,3.075025549E-2
2.837483560E-1,-6.108652451E-4,-2.687807009E-2,1.099557430E-2,2.904662566E-2
2.857105870E-1,-3.054326167E-3,-2.687807009E-2,1.038470957E-2,2.897588226E-2
2.877102790E-1,-1.221730490E-3,-2.748893574E-2,8.552113548E-3,2.881445574E-2
2.898269330E-1,-1.221730490E-3,-2.871066704E-2,6.108652335E-3,2.937874505E-2
2.916868460E-1,0.000000000E0,-2.626720630E-2,8.552113548E-3,2.762435108E-2
2.938834330E-1,6.108652451E-4,-2.809980139E-2,6.719517522E-3,2.889851052E-2
2.957904990E-1,1.832595794E-3,-2.626720630E-2,4.276056774E-3,2.667600411E-2
2.979870100E-1,4.886921961E-3,-2.626720630E-2,4.886921961E-3,2.716118810E-2
2.999298070E-1,5.497787148E-3,-2.809980139E-2,4.276056774E-3,2.895011508E-2
3.020911250E-1,1.038470957E-2,-2.748893574E-2,1.832595794E-3,2.944218382E-2
3.042344330E-1,1.038470957E-2,-3.054326214E-2,6.108652451E-4,3.226617751E-2
3.061349710E-1,1.343903504E-2,-2.809980139E-2,-1.221730490E-3,3.117208890E-2
3.079974990E-1,1.710422710E-2,-3.176499158E-2,-1.832595794E-3,3.612378278E-2
3.102519710E-1,1.771509275E-2,-3.176499158E-2,6.108652451E-4,3.637598600E-2
3.121196150E-1,1.832595654E-2,-2.871066704E-2,-3.054326167E-3,3.419754368E-2
3.143080480E-1,2.199114859E-2,-3.115412779E-2,-7.330383174E-3,3.883200757E-2
3.161984610E-1,2.321287990E-2,-3.237585723E-2,-6.719517522E-3,4.040031981E-2
3.184119330E-1,2.932153270E-2,-3.481931984E-2,-6.719517522E-3,4.601401123E-2
3.203538070E-1,3.176499158E-2,-3.726277873E-2,-9.162978269E-3,4.981455148E-2
3.225153560E-1,3.481931984E-2,-3.787364438E-2,-9.773843922E-3,5.236722256E-2
3.246123940E-1,3.787364438E-2,-3.848451003E-2,-9.162978269E-3,5.476705782E-2
3.265740480E-1,4.031710699E-2,-3.909537569E-2,-8.552113548E-3,5.680718407E-2
3.285168070E-1,4.642575979E-2,-3.909537569E-2,-1.160643995E-2,6.179408564E-2
3.306897400E-1,4.520402849E-2,-3.848451003E-2,-1.038470957E-2,6.026859793E-2
3.325486530E-1,4.825835302E-2,-3.726277873E-2,-1.221730467E-2,6.218235963E-2
3.347462020E-1,5.009094998E-2,-3.604105115E-2,-1.038470957E-2,6.257717500E-2
3.366583070E-1,4.886921868E-2,-3.543018550E-2,-1.038470957E-2,6.124818994E-2
3.388499710E-1,4.764748737E-2,-3.237585723E-2,-1.038470957E-2,5.853478775E-2
3.408641150E-1,4.764748737E-2,-2.993239649E-2,-9.773843922E-3,5.711181522E-2
3.429538170E-1,4.764748737E-2,-2.687807009E-2,-1.038470957E-2,5.568263551E-2
3.450958940E-1,4.520402849E-2,-2.260201424E-2,-9.773843922E-3,5.147604554E-2
3.469979710E-1,4.459316283E-2,-2.138028294E-2,-9.773843922E-3,5.041026379E-2
3.488583460E-1,4.581489414E-2,-1.771509275E-2,-9.773843922E-3,5.008350089E-2
3.511134710E-1,4.642575979E-2,-1.527163107E-2,-9.162978269E-3,4.972458204E-2
3.529553070E-1,4.764748737E-2,-1.649336144E-2,-7.941247895E-3,5.104289806E-2
3.551679710E-1,5.131268129E-2,-1.588249579E-2,-7.941247895E-3,5.429832734E-2
3.570644230E-1,5.070181563E-2,-1.893682219E-2,-8.552113548E-3,5.479430618E-2
3.592704710E-1,5.192354694E-2,-1.954768784E-2,-6.719517522E-3,5.588665979E-2
3.612469610E-1,5.070181563E-2,-1.893682219E-2,-8.552113548E-3,5.479430618E-2
3.633740860E-1,5.314527452E-2,-1.710422710E-2,-7.330383174E-3,5.630905172E-2
3.654717020E-1,5.192354694E-2,-1.771509275E-2,-7.330383174E-3,5.534992101E-2
3.674363170E-1,5.131268129E-2,-1.588249579E-2,-7.941247895E-3,5.429832734E-2
3.694361250E-1,5.070181563E-2,-1.771509275E-2,-7.330383174E-3,5.420547147E-2
3.715531630E-1,5.131268129E-2,-1.710422710E-2,-6.108652335E-3,5.443217320E-2
3.734691150E-1,4.764748737E-2,-1.710422710E-2,-8.552113548E-3,5.134175965E-2
3.756100090E-1,4.825835302E-2,-1.832595654E-2,-8.552113548E-3,5.232444903E-2
3.775108460E-1,4.642575979E-2,-1.527163107E-2,-4.886921961E-3,4.911675777E-2
3.797138170E-1,4.398229718E-2,-2.015855350E-2,-5.497787148E-3,4.869327888E-2
3.816493070E-1,4.092797264E-2,-1.954768784E-2,-4.886921961E-3,4.561899880E-2
3.838175480E-1,4.092797264E-2,-2.015855350E-2,-6.719517522E-3,4.611527013E-2
3.859606250E-1,4.153883830E-2,-2.321287990E-2,-8.552113548E-3,4.834719771E-2
3.878607790E-1,3.909537569E-2,-2.382374369E-2,-3.665191587E-3,4.592877957E-2
3.897205380E-1,3.848451003E-2,-2.687807009E-2,-6.719517522E-3,4.741982792E-2
3.919760860E-1,3.787364438E-2,-2.687807009E-2,-5.497787148E-3,4.676611224E-2
3.938244220E-1,3.726277873E-2,-2.565634064E-2,-9.773843922E-3,4.628488435E-2
3.960308560E-1,3.848451003E-2,-2.687807009E-2,-1.038470957E-2,4.807629725E-2
3.979139610E-1,3.848451003E-2,-2.809980139E-2,-9.773843922E-3,4.864344124E-2
4.001330480E-1,4.214970022E-2,-2.809980139E-2,-1.099557430E-2,5.183723296E-2
4.021149610E-1,4.092797264E-2,-2.871066704E-2,-1.282817032E-2,5.161359608E-2
4.042350860E-1,4.276056588E-2,-3.359758854E-2,-1.343903504E-2,5.601670833E-2
4.063329710E-1,4.520402849E-2,-3.176499158E-2,-1.466076635E-2,5.716079908E-2
4.082927790E-1,4.520402849E-2,-3.481931984E-2,-1.527163107E-2,5.906785878E-2
4.101698840E-1,4.459316283E-2,-3.543018550E-2,-1.404990070E-2,5.866215071E-2
4.124085090E-1,4.398229718E-2,-3.604105115E-2,-1.588249579E-2,5.903942332E-2
4.143953550E-1,4.459316283E-2,-3.543018550E-2,-1.893682219E-2,6.002042528E-2
4.164644710E-1,4.092797264E-2,-3.604105115E-2,-1.404990070E-2,5.631568185E-2
4.183548460E-1,4.031710699E-2,-3.726277873E-2,-1.404990070E-2,5.666907009E-2
4.205680480E-1,3.726277873E-2,-3.359758854E-2,-1.466076635E-2,5.227093556E-2
4.226028940E-1,3.420845419E-2,-3.420845419E-2,-1.282817032E-2,5.004996134E-2
4.246724320E-1,3.054326214E-2,-2.871066704E-2,-1.588249579E-2,4.482685508E-2
4.268148940E-1,3.054326214E-2,-2.565634064E-2,-1.466076635E-2,4.249796168E-2
4.287149710E-1,2.443460934E-2,-2.321287990E-2,-1.466076635E-2,3.675358481E-2
4.306263840E-1,2.687807009E-2,-2.321287990E-2,-1.404990070E-2,3.819251437E-2
4.328305860E-1,2.565634064E-2,-2.015855350E-2,-1.588249579E-2,3.628868649E-2
4.347284610E-1,2.565634064E-2,-1.710422710E-2,-1.282817032E-2,3.339707103E-2
4.368855480E-1,2.504547499E-2,-1.710422710E-2,-1.588249579E-2,3.423571344E-2
4.387678070E-1,2.260201424E-2,-1.588249579E-2,-1.588249579E-2,3.186468881E-2
4.409885480E-1,2.382374369E-2,-1.527163107E-2,-1.588249579E-2,3.245068799E-2
4.430009610E-1,2.382374369E-2,-1.527163107E-2,-1.710422710E-2,3.306581412E-2
4.450914320E-1,2.382374369E-2,-1.588249579E-2,-1.771509275E-2,3.366970369E-2
4.471892020E-1,2.504547499E-2,-1.649336144E-2,-1.649336144E-2,3.422481207E-2
4.491506630E-1,2.565634064E-2,-1.649336144E-2,-1.527163107E-2,3.411013783E-2
4.510209220E-1,2.321287990E-2,-1.710422710E-2,-1.588249579E-2,3.291877960E-2
4.532659320E-1,2.626720630E-2,-1.527163107E-2,-1.832595654E-2,3.548280605E-2
4.551317300E-1,2.626720630E-2,-1.588249579E-2,-1.588249579E-2,3.456115553E-2
4.573209710E-1,2.993239649E-2,-1.710422710E-2,-1.588249579E-2,3.795729991E-2
4.592220380E-1,3.054326214E-2,-1.771509275E-2,-1.832595654E-2,3.978135312E-2
4.614235090E-1,2.932153270E-2,-1.588249579E-2,-1.588249579E-2,3.693588533E-2
4.633598840E-1,3.237585723E-2,-1.588249579E-2,-1.771509275E-2,4.017803275E-2
4.655264710E-1,3.298672289E-2,-1.404990070E-2,-2.015855350E-2,4.113260113E-2
4.676693940E-1,3.543018550E-2,-1.404990070E-2,-1.832595654E-2,4.229111534E-2
4.695700480E-1,3.420845419E-2,-1.343903504E-2,-1.954768784E-2,4.162857313E-2
4.715690480E-1,3.665191308E-2,-1.588249579E-2,-2.199114859E-2,4.559854187E-2
4.736859320E-1,3.665191308E-2,-1.466076635E-2,-2.260201424E-2,4.548793082E-2
4.755301530E-1,3.665191308E-2,-1.038470957E-2,-2.015855350E-2,4.309956153E-2
4.777409320E-1,3.726277873E-2,-8.552113548E-3,-2.076941915E-2,4.350887377E-2
4.796402690E-1,3.970624134E-2,-3.665191587E-3,-2.015855350E-2,4.468094124E-2
4.818443940E-1,3.726277873E-2,0.000000000E0,-1.832595654E-2,4.152535806E-2
4.837823070E-1,3.543018550E-2,4.276056774E-3,-1.771509275E-2,3.984227926E-2
4.859474320E-1,3.298672289E-2,6.108652335E-3,-1.649336144E-2,3.738275661E-2
4.880456240E-1,3.176499158E-2,1.221730467E-2,-1.466076635E-2,3.705691964E-2
4.900060480E-1,2.932153270E-2,1.466076635E-2,-1.527163107E-2,3.616508074E-2
4.918823460E-1,2.626720630E-2,1.527163107E-2,-1.588249579E-2,3.428472713E-2
4.941220860E-1,2.565634064E-2,2.076941915E-2,-1.466076635E-2,3.611861926E-2
4.959786530E-1,2.504547499E-2,1.954768784E-2,-1.282817032E-2,3.426295188E-2
4.981771240E-1,2.138028294E-2,1.832595654E-2,-1.160643995E-2,3.045762023E-2
5.000853070E-1,2.076941915E-2,1.771509275E-2,-1.221730467E-2,2.990745419E-2
5.022805090E-1,2.199114859E-2,2.015855350E-2,-9.162978269E-3,3.120798081E-2
5.042049990E-1,1.649336144E-2,1.832595654E-2,-9.773843922E-3,2.652168320E-2
5.063831240E-1,1.771509275E-2,1.649336144E-2,-1.160643995E-2,2.684334053E-2
5.085265470E-1,1.466076635E-2,1.588249579E-2,-1.160643995E-2,2.453367463E-2
5.104271630E-1,1.527163107E-2,1.527163107E-2,-1.099557430E-2,2.423526532E-2
5.123439220E-1,1.282817032E-2,1.160643995E-2,-1.160643995E-2,2.083220704E-2
5.145434700E-1,1.466076635E-2,1.038470957E-2,-1.282817032E-2,2.207582879E-2
5.163915380E-1,1.466076635E-2,1.160643995E-2,-1.404990070E-2,2.338904076E-2
5.185998170E-1,1.466076635E-2,1.038470957E-2,-1.466076635E-2,2.318875445E-2
5.204965760E-1,1.649336144E-2,1.282817032E-2,-1.527163107E-2,2.588079676E-2
5.227033170E-1,1.588249579E-2,1.099557430E-2,-1.588249579E-2,2.500819864E-2
5.249868450E-1,1.832595654E-2,1.099557430E-2,-1.527163107E-2,2.626720489E-2
5.267678550E-1,1.588249579E-2,6.108652335E-3,-1.588249579E-2,2.327709128E-2
5.288301240E-1,1.893682219E-2,3.054326167E-3,-1.527163107E-2,2.451845955E-2
5.307913550E-1,2.138028294E-2,1.221730490E-3,-1.466076635E-2,2.595278779E-2
5.326558840E-1,2.076941915E-2,0.000000000E0,-1.527163107E-2,2.577967198E-2
5.349068930E-1,1.771509275E-2,-3.054326167E-3,-1.527163107E-2,2.358762673E-2
5.368348070E-1,1.710422710E-2,-5.497787148E-3,-1.466076635E-2,2.318875413E-2
5.389626240E-1,1.771509275E-2,-6.108652335E-3,-1.588249579E-2,2.456407574E-2
5.408812690E-1,1.893682219E-2,-7.941247895E-3,-1.832595654E-2,2.752285116E-2
5.430662780E-1,1.832595654E-2,-6.719517522E-3,-2.199114859E-2,2.940413602E-2
5.450056920E-1,1.954768784E-2,-7.941247895E-3,-2.138028294E-2,3.003817599E-2
5.471702780E-1,2.015855350E-2,-1.099557430E-2,-2.565634064E-2,3.443134834E-2
5.493126240E-1,2.138028294E-2,-1.160643995E-2,-2.993239649E-2,3.857167751E-2
5.512131630E-1,2.321287990E-2,-1.160643995E-2,-2.809980139E-2,3.825109253E-2
5.530971920E-1,2.443460934E-2,-1.404990070E-2,-2.809980139E-2,3.980010906E-2
5.553275470E-1,2.748893574E-2,-1.099557430E-2,-2.932153270E-2,4.166889154E-2
5.572092300E-1,3.237585723E-2,-8.552113548E-3,-2.687807009E-2,4.293908976E-2
5.593825470E-1,2.993239649E-2,-5.497787148E-3,-2.687807009E-2,4.060301312E-2
5.613055760E-1,3.359758854E-2,6.108652451E-4,-2.504547499E-2,4.190998604E-2
5.634852400E-1,2.504547499E-2,1.221730490E-3,-2.626720630E-2,3.631438516E-2
5.654403070E-1,3.176499158E-2,4.276056774E-3,-2.382374369E-2,3.993582496E-2
5.675878160E-1,2.687807009E-2,4.276056774E-3,-2.626720630E-2,3.782434983E-2
5.696850470E-1,3.359758854E-2,6.108652335E-3,-2.565634064E-2,4.271254387E-2
5.716442400E-1,3.604105115E-2,4.276056774E-3,-2.748893574E-2,4.552893165E-2
5.735136150E-1,3.909537569E-2,1.832595794E-3,-2.809980139E-2,4.818096767E-2
5.757598930E-1,3.970624134E-2,1.832595794E-3,-3.359758854E-2,5.204557584E-2
5.776048070E-1,4.153883830E-2,6.108652451E-4,-3.115412779E-2,5.192714051E-2
5.798149700E-1,4.398229718E-2,-6.108652451E-4,-3.237585723E-2,5.461695482E-2
5.817612300E-1,4.337143153E-2,-1.221730490E-3,-3.359758854E-2,5.487596609E-2
5.839177010E-1,4.703662544E-2,-1.221730490E-3,-3.359758854E-2,5.781638794E-2
5.858408070E-1,4.886921868E-2,-2.443460980E-3,-3.176499158E-2,5.833682993E-2
5.880200860E-1,4.948008433E-2,-3.665191587E-3,-3.298672289E-2,5.958050236E-2
5.901630090E-1,5.131268129E-2,-3.665191587E-3,-3.115412779E-2,6.014153780E-2
5.920631630E-1,5.375614017E-2,-4.886921961E-3,-2.687807009E-2,6.029954613E-2
5.938796150E-1,5.314527452E-2,-9.162978269E-3,-3.054326214E-2,6.197798994E-2
5.961800860E-1,5.436700583E-2,-9.773843922E-3,-2.993239649E-2,6.282712557E-2
5.980388840E-1,5.131268129E-2,-1.282817032E-2,-2.748893574E-2,5.960868060E-2
6.002365860E-1,5.131268129E-2,-1.710422710E-2,-2.993239649E-2,6.181823521E-2
6.021727680E-1,5.070181563E-2,-1.893682219E-2,-3.176499158E-2,6.275581275E-2
6.043404700E-1,5.070181563E-2,-1.771509275E-2,-3.237585723E-2,6.271120116E-2
6.062998840E-1,5.375614017E-2,-2.199114859E-2,-3.848451003E-2,6.967345790E-2
6.084448550E-1,5.192354694E-2,-2.687807009E-2,-3.726277873E-2,6.933253246E-2
6.105425860E-1,5.131268129E-2,-3.054326214E-2,-3.787364438E-2,7.071276449E-2
6.125067780E-1,5.375614017E-2,-3.481931984E-2,-3.848451003E-2,7.472058052E-2
6.145067390E-1,5.619960278E-2,-3.604105115E-2,-4.031710699E-2,7.799244731E-2
6.166229700E-1,5.681046844E-2,-4.214970022E-2,-4.153883830E-2,8.203353973E-2
6.186100090E-1,5.986479297E-2,-4.092797264E-2,-4.276056588E-2,8.418645008E-2
6.206788550E-1,6.047565863E-2,-4.703662544E-2,-4.337143153E-2,8.803880106E-2
6.227133160E-1,6.841690838E-2,-4.642575979E-2,-5.253441259E-2,9.795962960E-2
6.247827390E-1,7.147123665E-2,-4.825835302E-2,-5.864306539E-2,1.042881365E-1
6.266892300E-1,7.819075137E-2,-4.581489414E-2,-6.658431143E-2,1.124556297E-1
6.288862780E-1,8.674286306E-2,-5.192354694E-2,-7.391469181E-2,1.252348222E-1
6.310297010E-1,9.590584040E-2,-5.803219974E-2,-6.963863969E-2,1.319666873E-1
6.329312390E-1,1.001819000E-1,-6.047565863E-2,-7.024950534E-2,1.364870374E-1
6.348067680E-1,1.093448773E-1,-6.658431143E-2,-6.536258012E-2,1.437429637E-1
6.370475470E-1,1.172861308E-1,-7.086037099E-2,-6.902777404E-2,1.534342277E-1
6.389615380E-1,1.203404516E-1,-7.147123665E-2,-6.780604273E-2,1.555237004E-1
6.411033930E-1,1.282816976E-1,-7.513642311E-2,-7.086037099E-2,1.646902189E-1
6.430649610E-1,1.325577646E-1,-7.147123665E-2,-7.452555746E-2,1.680290372E-1
6.452066240E-1,1.380555481E-1,-7.147123665E-2,-7.819075137E-2,1.740151304E-1
6.471300760E-1,1.398881376E-1,-6.536258012E-2,-7.941248268E-2,1.736297795E-1
6.493105080E-1,1.453859210E-1,-6.291911751E-2,-8.552113175E-2,1.800270684E-1
6.514082780E-1,1.490511149E-1,-6.352998316E-2,-8.918632567E-2,1.849499778E-1
6.533698160E-1,1.527163088E-1,-6.047565863E-2,-9.285151958E-2,1.886822222E-1
6.553697390E-1,1.539380401E-1,-6.169738993E-2,-9.224065393E-2,1.897678223E-1
6.574863160E-1,1.563815027E-1,-6.047565863E-2,-9.224065393E-2,1.913656655E-1
6.593392680E-1,1.545489132E-1,-5.558873713E-2,-9.162978828E-2,1.880731038E-1
6.615411240E-1,1.551597714E-1,-5.803219974E-2,-9.224065393E-2,1.896065113E-1
6.634053450E-1,1.533271819E-1,-5.742133409E-2,-9.712757170E-2,1.903685886E-1
6.656432390E-1,1.539380401E-1,-5.436700583E-2,-9.285151958E-2,1.878139937E-1
6.675300760E-1,1.533271819E-1,-5.314527452E-2,-9.101892263E-2,1.860593701E-1
6.697451620E-1,1.508837193E-1,-5.314527452E-2,-8.979719132E-2,1.834498638E-1
6.718878930E-1,1.484402567E-1,-5.253441259E-2,-8.857546002E-2,1.806653991E-1
6.737881240E-1,1.459967941E-1,-5.558873713E-2,-9.040805697E-2,1.804959511E-1
6.756413070E-1,1.447750628E-1,-5.497787148E-2,-9.101892263E-2,1.796297009E-1
6.779034700E-1,1.350012124E-1,-5.375614017E-2,-8.979719132E-2,1.708174040E-1
6.797413840E-1,1.295034289E-1,-5.803219974E-2,-9.468411654E-2,1.705988166E-1
6.819580080E-1,1.258382350E-1,-5.925392732E-2,-9.407325089E-2,1.679168420E-1
6.838787300E-1,1.240056455E-1,-6.047565863E-2,-9.346238524E-2,1.666431002E-1
6.860601240E-1,1.185078546E-1,-6.291911751E-2,-9.224065393E-2,1.628228031E-1
6.879956920E-1,1.166752651E-1,-6.291911751E-2,-9.101892263E-2,1.607991826E-1
6.901628160E-1,1.142318025E-1,-6.352998316E-2,-8.918632567E-2,1.582376825E-1
6.922602010E-1,1.111774743E-1,-6.597344577E-2,-8.796459436E-2,1.563671839E-1
6.942222010E-1,1.136209369E-1,-6.902777404E-2,-8.796459436E-2,1.594124234E-1
6.961043840E-1,1.160643995E-1,-7.269296050E-2,-8.979719132E-2,1.637643029E-1
6.983380470E-1,1.197295859E-1,-7.330382615E-2,-9.040805697E-2,1.669797636E-1
7.003253540E-1,1.227839142E-1,-7.819075137E-2,-9.651670605E-2,1.746572579E-1
7.023947390E-1,1.313360333E-1,-8.246681094E-2,-9.773843735E-2,1.833104762E-1
7.043667300E-1,1.380555481E-1,-8.918632567E-2,-1.026253626E-1,1.937666124E-1
7.064990850E-1,1.398881376E-1,-9.162978828E-2,-1.026253626E-1,1.962056935E-1
7.084373450E-1,1.472185254E-1,-1.001819000E-1,-1.014036313E-1,2.049204815E-1
7.106029310E-1,1.521054506E-1,-1.075122803E-1,-1.056796908E-1,2.141568481E-1
7.127461240E-1,1.576032341E-1,-1.123992056E-1,-1.020144969E-1,2.188134328E-1
7.146457770E-1,1.594358236E-1,-1.142318025E-1,-1.032362282E-1,2.216447729E-1
7.165203070E-1,1.637118906E-1,-1.123992056E-1,-1.014036313E-1,2.229750232E-1
7.187617390E-1,1.649336219E-1,-1.130100712E-1,-1.007927656E-1,2.239052421E-1
7.205893070E-1,1.661553532E-1,-1.099557430E-1,-9.896016866E-2,2.224656868E-1
7.228180080E-1,1.643227488E-1,-1.093448773E-1,-1.007927656E-1,2.216245689E-1
7.247377300E-1,1.606575549E-1,-1.038470939E-1,-9.834930301E-2,2.150991730E-1
7.269214310E-1,1.576032341E-1,-9.712757170E-2,-9.834930301E-2,2.096309375E-1
7.288646910E-1,1.569923609E-1,-9.468411654E-2,-1.014036313E-1,2.095098560E-1
7.310256620E-1,1.551597714E-1,-9.040805697E-2,-1.020144969E-1,2.065311817E-1
7.331237000E-1,1.496619880E-1,-8.246681094E-2,-1.026253626E-1,1.993274959E-1
7.350837390E-1,1.484402567E-1,-7.819075137E-2,-1.038470939E-1,1.973132594E-1
7.369688070E-1,1.459967941E-1,-7.574728876E-2,-1.044579595E-1,1.948439913E-1
7.391993540E-1,1.447750628E-1,-7.024950534E-2,-1.032362282E-1,1.911871613E-1
7.410856910E-1,1.441642046E-1,-6.780604273E-2,-1.044579595E-1,1.905057548E-1
7.432545470E-1,1.490511149E-1,-6.780604273E-2,-1.038470939E-1,1.939023290E-1
7.451602300E-1,1.521054506E-1,-6.475171447E-2,-1.001819000E-1,1.933009719E-1
7.473572000E-1,1.521054506E-1,-6.230825558E-2,-1.007927656E-1,1.928148553E-1
7.492612680E-1,1.527163088E-1,-5.742133409E-2,-9.834930301E-2,1.905047663E-1
7.514593540E-1,1.521054506E-1,-5.558873713E-2,-9.529497474E-2,1.879023896E-1
7.536029310E-1,1.557706445E-1,-4.825835302E-2,-9.651670605E-2,1.894962714E-1
7.555032390E-1,1.539380401E-1,-4.153883830E-2,-9.773843735E-2,1.870165699E-1
7.573684990E-1,1.551597714E-1,-3.848451003E-2,-9.896016866E-2,1.880125718E-1
7.596192770E-1,1.527163088E-1,-3.115412779E-2,-1.007927656E-1,1.856125865E-1
7.614412300E-1,1.502728462E-1,-2.138028294E-2,-1.038470939E-1,1.839110212E-1
7.636748540E-1,1.508837193E-1,-1.527163107E-2,-1.032362282E-1,1.834580014E-1
7.655543840E-1,1.508837193E-1,-1.404990070E-2,-1.056796908E-1,1.847471069E-1
7.677772390E-1,1.508837193E-1,-9.162978269E-3,-1.032362282E-1,1.830507464E-1
7.700169990E-1,1.459967941E-1,-4.276056774E-3,-1.038470939E-1,1.792137480E-1
7.718402000E-1,1.466076523E-1,-3.665191587E-3,-1.056796908E-1,1.807634764E-1
7.739029310E-1,1.478293836E-1,-3.665191587E-3,-1.056796908E-1,1.817557629E-1
7.758645850E-1,1.478293836E-1,6.108652451E-4,-1.032362282E-1,1.803097852E-1
7.777299220E-1,1.472185254E-1,3.054326167E-3,-1.032362282E-1,1.798342068E-1
7.799807000E-1,1.484402567E-1,1.832595794E-3,-1.001819000E-1,1.790929404E-1
7.818469610E-1,1.496619880E-1,4.886921961E-3,-9.590584040E-2,1.778216041E-1
7.840365850E-1,1.484402567E-1,1.038470957E-2,-9.468411654E-2,1.763729966E-1
7.859192680E-1,1.472185254E-1,6.719517522E-3,-9.712757170E-2,1.764998904E-1
7.881390080E-1,1.466076523E-1,8.552113548E-3,-9.346238524E-2,1.740751557E-1
7.900483450E-1,1.447750628E-1,7.330383174E-3,-9.651670605E-2,1.741523123E-1
7.922415080E-1,1.435533315E-1,7.941247895E-3,-1.007927656E-1,1.755841792E-1
7.943845460E-1,1.435533315E-1,7.330383174E-3,-1.007927656E-1,1.755576119E-1
7.962842000E-1,1.441642046E-1,1.221730467E-2,-1.020144969E-1,1.770297659E-1
7.980939990E-1,1.398881376E-1,1.649336144E-2,-1.014036313E-1,1.735609934E-1
8.003997000E-1,1.374446750E-1,1.832595654E-2,-1.038470939E-1,1.732371157E-1
8.021978450E-1,1.301143020E-1,2.626720630E-2,-1.014036313E-1,1.670400975E-1
8.044548540E-1,1.215621829E-1,3.481931984E-2,-1.007927656E-1,1.617063108E-1
8.063267300E-1,1.166752651E-1,4.398229718E-2,-1.001819000E-1,1.599499079E-1
8.085580850E-1,1.105666086E-1,4.948008433E-2,-9.957103431E-2,1.568044788E-1
8.104911530E-1,1.032362282E-1,6.352998316E-2,-1.001819000E-1,1.572583564E-1
8.126616620E-1,9.590584040E-2,8.002334833E-2,-9.712757170E-2,1.582258882E-1
8.147595460E-1,8.979719132E-2,9.712757170E-2,-9.834930301E-2,1.648329037E-1
8.167205460E-1,8.552113175E-2,1.038470939E-1,-9.651670605E-2,1.655704002E-1
8.187197680E-1,8.185594529E-2,1.142318025E-1,-9.224065393E-2,1.681000854E-1
8.208365080E-1,7.941248268E-2,1.209513173E-1,-8.613199741E-2,1.683873051E-1
8.226658070E-1,7.941248268E-2,1.246165112E-1,-8.246681094E-2,1.692229067E-1
8.248925080E-1,7.391469181E-2,1.264491081E-1,-7.452555746E-2,1.643375104E-1
8.267745760E-1,6.902777404E-2,1.246165112E-1,-6.414084882E-2,1.562311010E-1
8.289959310E-1,6.841690838E-2,1.197295859E-1,-5.558873713E-2,1.486813869E-1
8.308903450E-1,7.147123665E-2,1.160643995E-1,-5.497787148E-2,1.469749940E-1
8.330989310E-1,7.330382615E-2,1.130100712E-1,-5.070181563E-2,1.439284587E-1
8.352415850E-1,8.063421398E-2,1.105666086E-1,-4.703662544E-2,1.447041656E-1
8.371411620E-1,8.124507964E-2,1.117883399E-1,-4.337143153E-2,1.448394869E-1
8.389945380E-1,8.979719132E-2,1.087340117E-1,-4.153883830E-2,1.470105301E-1
8.412561620E-1,9.712757170E-2,1.105666086E-1,-3.726277873E-2,1.518132234E-1
8.431389610E-1,1.014036313E-1,1.081231460E-1,-3.848451003E-2,1.531481918E-1
8.453108920E-1,1.050688252E-1,1.044579595E-1,-3.481931984E-2,1.521949683E-1
8.472098840E-1,1.123992056E-1,1.038470939E-1,-3.543018550E-2,1.570767276E-1
8.494135850E-1,1.154535338E-1,1.032362282E-1,-3.543018550E-2,1.588789959E-1
8.513372680E-1,1.166752651E-1,1.075122803E-1,-3.543018550E-2,1.625647747E-1
8.535160850E-1,1.203404516E-1,1.093448773E-1,-3.481931984E-2,1.662844296E-1
8.556136230E-1,1.233947799E-1,1.148426682E-1,-3.543018550E-2,1.722510034E-1
8.575776230E-1,1.233947799E-1,1.197295859E-1,-3.237585723E-2,1.749561133E-1
8.594291530E-1,1.258382350E-1,1.203404516E-1,-3.237585723E-2,1.771024613E-1
8.616934310E-1,1.203404516E-1,1.282816976E-1,-2.748893574E-2,1.780271323E-1
8.635377300E-1,1.191187203E-1,1.368338168E-1,-2.076941915E-2,1.826037560E-1
8.657495080E-1,1.172861308E-1,1.637118906E-1,-1.282817032E-2,2.017973774E-1
8.676353070E-1,1.154535338E-1,1.777617931E-1,-1.466076635E-2,2.124704959E-1
8.698527380E-1,1.123992056E-1,2.052507252E-1,-1.038470957E-2,2.342419343E-1
8.717707300E-1,1.069014147E-1,2.211332172E-1,-9.773843922E-3,2.458115950E-1
8.739563540E-1,9.529497474E-2,2.357939780E-1,-3.054326167E-3,2.543408366E-1
8.760990840E-1,9.040805697E-2,2.382374406E-1,-1.221730490E-3,2.548179497E-1
8.779997770E-1,6.902777404E-2,2.272418737E-1,2.138028294E-2,2.384550676E-1
8.798097680E-1,6.352998316E-2,2.449569702E-1,3.787364438E-2,2.558796376E-1
8.821162000E-1,6.475171447E-2,2.669481039E-1,3.665191308E-2,2.771235057E-1
8.839291140E-1,6.658431143E-2,2.932153046E-1,3.726277873E-2,3.029805275E-1
8.861720460E-1,6.169738993E-2,2.993239760E-1,3.298672289E-2,3.073915003E-1
8.880505760E-1,5.436700583E-2,2.864958048E-1,2.871066704E-2,2.930186340E-1
8.902758150E-1,4.703662544E-2,2.785545588E-1,2.871066704E-2,2.839531453E-1
8.922092300E-1,4.581489414E-2,2.516764700E-1,2.443460934E-2,2.569768477E-1
8.943793540E-1,4.337143153E-2,2.278527319E-1,2.504547499E-2,2.332921438E-1
8.964771610E-1,5.009094998E-2,2.064724565E-1,2.626720630E-2,2.140792953E-1
8.984375070E-1,4.825835302E-2,1.997529417E-1,2.993239649E-2,2.076681360E-1
9.003481910E-1,5.558873713E-2,1.820378453E-1,2.748893574E-2,1.923110147E-1
9.025534690E-1,5.864306539E-2,1.698205322E-1,2.321287990E-2,1.811542439E-1
9.044135380E-1,6.230825558E-2,1.618792862E-1,1.832595654E-2,1.744220820E-1
9.066087770E-1,6.352998316E-2,1.441642046E-1,1.221730467E-2,1.580146803E-1
9.085148450E-1,6.475171447E-2,1.288925707E-1,5.497787148E-3,1.443478610E-1
9.107119310E-1,6.658431143E-2,1.160643995E-1,-2.443460980E-3,1.338296897E-1
9.126500380E-1,6.291911751E-2,1.062905490E-1,-7.941247895E-3,1.237722084E-1
9.148139310E-1,6.597344577E-2,9.773843735E-2,-1.343903504E-2,1.186840568E-1
9.169562770E-1,6.352998316E-2,9.162978828E-2,-1.404990070E-2,1.123809440E-1
9.188559690E-1,6.719517708E-2,8.857546002E-2,-1.649336144E-2,1.123958848E-1
9.207167300E-1,6.291911751E-2,8.552113175E-2,-1.954768784E-2,1.079573593E-1
9.229698920E-1,6.597344577E-2,8.918632567E-2,-2.504547499E-2,1.137276222E-1
9.248098450E-1,6.658431143E-2,8.796459436E-2,-2.748893574E-2,1.136964466E-1
9.270248540E-1,6.780604273E-2,8.796459436E-2,-2.748893574E-2,1.144162177E-1
9.289283070E-1,7.147123665E-2,8.857546002E-2,-2.809980139E-2,1.172320290E-1
9.311271230E-1,7.941248268E-2,8.429940045E-2,-3.543018550E-2,1.211116401E-1
9.331318450E-1,8.002334833E-2,7.941248268E-2,-3.543018550E-2,1.181751951E-1
9.352291230E-1,8.613199741E-2,6.841690838E-2,-3.970624134E-2,1.169452005E-1
9.373268150E-1,9.346238524E-2,5.803219974E-2,-4.398229718E-2,1.184795178E-1
9.392886610E-1,9.896016866E-2,4.031710699E-2,-5.070181563E-2,1.182761946E-1
9.411914610E-1,1.026253626E-1,3.176499158E-2,-5.192354694E-2,1.193190448E-1
9.434035460E-1,1.050688252E-1,1.527163107E-2,-6.108652428E-2,1.224918127E-1
9.453795370E-1,1.093448773E-1,-1.221730490E-3,-6.841690838E-2,1.289909616E-1
9.474573150E-1,1.105666086E-1,-6.108652335E-3,-7.147123665E-2,1.317969204E-1
9.493673070E-1,1.154535338E-1,-1.893682219E-2,-7.880161703E-2,1.410596206E-1
9.515591230E-1,1.160643995E-1,-2.504547499E-2,-8.735372871E-2,1.474072405E-1
9.534983840E-1,1.203404516E-1,-3.726277873E-2,-9.834930301E-2,1.598215391E-1
9.556615070E-1,1.215621829E-1,-3.665191308E-2,-1.020144969E-1,1.628732164E-1
9.578033530E-1,1.221730486E-1,-4.459316283E-2,-1.117883399E-1,1.714976294E-1
9.597026610E-1,1.215621829E-1,-5.436700583E-2,-1.197295859E-1,1.790762670E-1
9.615939990E-1,1.203404516E-1,-6.047565863E-2,-1.282816976E-1,1.859981815E-1
9.638182380E-1,1.203404516E-1,-6.475171447E-2,-1.325577646E-1,1.903842687E-1
9.656894610E-1,1.191187203E-1,-7.269296050E-2,-1.386664063E-1,1.967280058E-1
9.678745460E-1,1.203404516E-1,-7.880161703E-2,-1.453859210E-1,2.045203784E-1
9.697847300E-1,1.197295859E-1,-8.307767659E-2,-1.484402567E-1,2.080182298E-1
9.719772000E-1,1.178969890E-1,-8.613199741E-2,-1.521054506E-1,2.108423323E-1
9.739237300E-1,1.111774743E-1,-8.857546002E-2,-1.514945775E-1,2.077417866E-1
9.760793530E-1,1.075122803E-1,-9.040805697E-2,-1.484402567E-1,2.043698045E-1
9.781767380E-1,1.038470939E-1,-8.796459436E-2,-1.472185254E-1,2.004876131E-1
9.801380460E-1,1.001819000E-1,-8.429940045E-2,-1.411098689E-1,1.924962262E-1
9.821380840E-1,9.285151958E-2,-8.063421398E-2,-1.337794960E-1,1.817147069E-1
9.842525070E-1,8.979719132E-2,-7.513642311E-2,-1.240056455E-1,1.705474062E-1
9.861114220E-1,8.613199741E-2,-7.024950534E-2,-1.172861308E-1,1.615851183E-1
9.883079690E-1,8.368854225E-2,-6.291911751E-2,-1.099557430E-1,1.518316596E-1
9.902173450E-1,8.491026610E-2,-5.925392732E-2,-9.773843735E-2,1.423853340E-1
9.924104690E-1,8.429940045E-2,-5.497787148E-2,-9.285151958E-2,1.369319537E-1
9.943423450E-1,8.735372871E-2,-4.764748737E-2,-8.063421398E-2,1.280735470E-1
9.965131610E-1,8.674286306E-2,-4.764748737E-2,-7.269296050E-2,1.227960661E-1
9.986557380E-1,9.101892263E-2,-4.886921868E-2,-6.414084882E-2,1.216005481E-1
1.000556122E0,9.101892263E-2,-5.253441259E-2,-6.475171447E-2,1.234386216E-1
1.002434576E0,9.896016866E-2,-5.497787148E-2,-6.047565863E-2,1.283471333E-1
1.004671853E0,1.050688252E-1,-6.352998316E-2,-6.230825558E-2,1.376874559E-1
1.006607845E0,1.069014147E-1,-6.841690838E-2,-6.169738993E-2,1.411217692E-1
1.008728430E0,1.099557430E-1,-8.552113175E-2,-6.841690838E-2,1.551934365E-1
1.010761546E0,1.142318025E-1,-1.001819000E-1,-7.757988572E-2,1.705988173E-1
1.012830469E0,1.160643995E-1,-1.172861308E-1,-8.918632567E-2,1.875664735E-1
1.015157276E0,1.166752651E-1,-1.380555481E-1,-1.001819000E-1,2.066612323E-1
1.016895315E0,1.154535338E-1,-1.466076523E-1,-1.081231460E-1,2.156708995E-1
1.018957930E0,1.130100712E-1,-1.655444801E-1,-1.178969890E-1,2.325423641E-1
1.020920007E0,1.130100712E-1,-1.728748679E-1,-1.221730486E-1,2.399651015E-1
1.022919584E0,1.130100712E-1,-1.875356287E-1,-1.337794960E-1,2.565888574E-1
1.025035161E0,1.117883399E-1,-2.021963894E-1,-1.435533315E-1,2.720065658E-1
1.026962576E0,1.105666086E-1,-2.138028294E-1,-1.557706445E-1,2.867073743E-1
1.029090392E0,1.111774743E-1,-2.174680233E-1,-1.594358236E-1,2.916719969E-1
1.030991153E0,1.105666086E-1,-2.272418737E-1,-1.710422635E-1,3.051545510E-1
1.033192892E0,1.123992056E-1,-2.321287990E-1,-1.802052408E-1,3.146288123E-1
1.035143922E0,1.105666086E-1,-2.309070677E-1,-1.844813079E-1,3.155572876E-1
1.037295507E0,1.142318025E-1,-2.309070677E-1,-1.924225539E-1,3.215484689E-1
1.039437699E0,1.123992056E-1,-2.278527319E-1,-2.009746730E-1,3.239463969E-1
1.041339392E0,1.111774743E-1,-2.284636050E-1,-2.119702399E-1,3.308888517E-1
1.043208999E0,1.117883399E-1,-2.241875380E-1,-2.144137025E-1,3.297422038E-1
1.045454622E0,1.117883399E-1,-2.235766798E-1,-2.254092693E-1,3.365895177E-1
1.047291384E0,1.123992056E-1,-2.272418737E-1,-2.309070677E-1,3.429147481E-1
1.049509007E0,1.093448773E-1,-2.357939780E-1,-2.351831198E-1,3.505227554E-1
1.051419460E0,1.069014147E-1,-2.394591719E-1,-2.406809032E-1,3.559436818E-1
1.053610738E0,1.032362282E-1,-2.492330223E-1,-2.455678284E-1,3.647990907E-1
1.055644430E0,1.001819000E-1,-2.626720667E-1,-2.510656118E-1,3.769177220E-1
1.057714007E0,9.712757170E-2,-2.645046413E-1,-2.492330223E-1,3.761828942E-1
1.059811507E0,9.407325089E-2,-2.681698501E-1,-2.492330223E-1,3.779972810E-1
1.061770891E0,9.285151958E-2,-2.724458873E-1,-2.522873580E-1,3.827493661E-1
1.063769968E0,8.552113175E-2,-2.736676335E-1,-2.522873580E-1,3.819119645E-1
1.065886661E0,8.613199741E-2,-2.742784917E-1,-2.486221492E-1,3.800794458E-1
1.067767653E0,7.941248268E-2,-2.693915665E-1,-2.443460971E-1,3.722676103E-1
1.069941391E0,7.635815442E-2,-2.614503205E-1,-2.345722616E-1,3.594592936E-1
1.071876730E0,7.391469181E-2,-2.590068579E-1,-2.315179259E-1,3.551738787E-1
1.074043968E0,6.597344577E-2,-2.504547536E-1,-2.223549485E-1,3.413528999E-1
1.076015768E0,5.803219974E-2,-2.388483137E-1,-2.095267773E-1,3.229825437E-1
1.078146622E0,5.314527452E-2,-2.339613885E-1,-2.009746730E-1,3.129747126E-1
1.080289507E0,4.520402849E-2,-2.284636050E-1,-1.954768747E-1,3.040562967E-1
1.082189622E0,3.909537569E-2,-2.205223590E-1,-1.863138974E-1,2.913270114E-1
1.084064499E0,3.054326214E-2,-2.223549485E-1,-1.808161139E-1,2.882170728E-1
1.086304853E0,2.443460934E-2,-2.211332172E-1,-1.765400618E-1,2.840129281E-1
1.088176730E0,2.199114859E-2,-2.217440903E-1,-1.747074574E-1,2.831549892E-1
1.090359507E0,1.527163107E-2,-2.229658216E-1,-1.747074574E-1,2.836717751E-1
1.092278537E0,9.162978269E-3,-2.272418737E-1,-1.759291887E-1,2.875307093E-1
1.094461891E0,5.497787148E-3,-2.302961946E-1,-1.771509200E-1,2.906011207E-1
1.096406114E0,1.832595794E-3,-2.388483137E-1,-1.814269722E-1,2.999460311E-1
1.098564776E0,-1.832595794E-3,-2.498438805E-1,-1.832595766E-1,3.098538292E-1
1.100662353E0,-1.221730490E-3,-2.620611787E-1,-1.887573600E-1,3.229657798E-1
1.102626507E0,-1.832595794E-3,-2.675589919E-1,-1.912008226E-1,3.288600418E-1
1.104527576E0,-1.832595794E-3,-2.785545588E-1,-1.954768747E-1,3.403045829E-1
1.106741237E0,0.000000000E0,-2.907718420E-1,-2.009746730E-1,3.534672309E-1
1.108596422E0,1.221730490E-3,-2.962696552E-1,-2.058615834E-1,3.607716629E-1
1.110795699E0,1.832595794E-3,-3.066543639E-1,-2.125810981E-1,3.731366781E-1
1.112698845E0,5.497787148E-3,-3.127630055E-1,-2.193006277E-1,3.820257695E-1
1.114896430E0,7.941247895E-3,-3.194825351E-1,-2.284636050E-1,3.928457363E-1
1.116822537E0,9.773843922E-3,-3.225368559E-1,-2.315179259E-1,3.971474556E-1
1.118998468E0,1.099557430E-2,-3.280346394E-1,-2.400700450E-1,4.066463498E-1
1.121140776E0,1.466076635E-2,-3.359758854E-1,-2.528982162E-1,4.207757614E-1
1.123039968E0,1.343903504E-2,-3.420845270E-1,-2.614503205E-1,4.307652509E-1
1.124920960E0,1.160643995E-2,-3.469714522E-1,-2.687807083E-1,4.390523514E-1
1.127155853E0,1.099557430E-2,-3.536909819E-1,-2.809980214E-1,4.518607101E-1
1.129036807E0,1.343903504E-2,-3.591887653E-1,-2.883284092E-1,4.607932815E-1
1.131210853E0,1.343903504E-2,-3.628539443E-1,-2.956587672E-1,4.682496121E-1
1.133116537E0,1.160643995E-2,-3.683517575E-1,-3.072652221E-1,4.798225124E-1
1.135313660E0,1.282817032E-2,-3.744603992E-1,-3.152064681E-1,4.896327910E-1
1.137261576E0,1.466076635E-2,-3.769038618E-1,-3.243694305E-1,4.974806394E-1
1.139416237E0,1.588249579E-2,-3.787364662E-1,-3.268128932E-1,5.004999816E-1
1.141513045E0,1.832595654E-2,-3.781255782E-1,-3.310889602E-1,5.029261309E-1
1.143473353E0,2.321287990E-2,-3.811798990E-1,-3.365867436E-1,5.090457633E-1
1.145390230E0,2.565634064E-2,-3.805690408E-1,-3.390302062E-1,5.103258991E-1
1.147587545E0,2.748893574E-2,-3.787364662E-1,-3.414736688E-1,5.106870068E-1
1.149461153E0,2.993239649E-2,-3.756821156E-1,-3.402519524E-1,5.077444155E-1
1.151640853E0,2.932153270E-2,-3.720169365E-1,-3.359758854E-1,5.021316052E-1
1.153542268E0,2.993239649E-2,-3.671300113E-1,-3.347541690E-1,4.977356198E-1
1.155743045E0,2.809980139E-2,-3.604104817E-1,-3.268128932E-1,4.873314901E-1
1.157684960E0,2.748893574E-2,-3.500257730E-1,-3.152064681E-1,4.718355656E-1
1.159844353E0,2.382374369E-2,-3.390302062E-1,-3.036000133E-1,4.557214276E-1
1.161985699E0,2.382374369E-2,-3.347541690E-1,-2.968805134E-1,4.480691505E-1
1.163885391E0,1.954768784E-2,-3.188716471E-1,-2.822197378E-1,4.262736443E-1
1.165883853E0,1.649336144E-2,-3.048217595E-1,-2.669481039E-1,4.055238910E-1
1.167999699E0,1.404990070E-2,-2.968805134E-1,-2.571742535E-1,3.930318506E-1
1.169866576E0,9.773843922E-3,-2.822197378E-1,-2.382374406E-1,3.694598578E-1
1.172053391E0,3.665191587E-3,-2.675589919E-1,-2.180788964E-1,3.451950939E-1
1.173951499E0,-3.054326167E-3,-2.498438805E-1,-1.985312104E-1,3.191330993E-1
1.176154622E0,-7.330383174E-3,-2.425135076E-1,-1.887573600E-1,3.074018166E-1
1.178100807E0,-1.160643995E-2,-2.223549485E-1,-1.747074574E-1,2.830178939E-1
1.180255814E0,-2.015855350E-2,-2.040289938E-1,-1.576032341E-1,2.585980994E-1
1.182353199E0,-2.199114859E-2,-1.850921661E-1,-1.459967941E-1,2.367652518E-1
1.184315506E0,-2.382374369E-2,-1.759291887E-1,-1.417207420E-1,2.271638592E-1
1.186219537E0,-2.504547499E-2,-1.612684280E-1,-1.356120855E-1,2.121919400E-1
1.188429583E0,-2.809980139E-2,-1.508837193E-1,-1.276708394E-1,1.996380195E-1
1.190318922E0,-2.748893574E-2,-1.508837193E-1,-1.264491081E-1,1.987735276E-1
1.192484468E0,-2.687807009E-2,-1.466076523E-1,-1.197295859E-1,1.911842256E-1
1.194387422E0,-2.321287990E-2,-1.453859210E-1,-1.209513173E-1,1.905390379E-1
1.196586353E0,-2.260201424E-2,-1.466076523E-1,-1.178969890E-1,1.894844447E-1
1.198611230E0,-2.076941915E-2,-1.533271819E-1,-1.172861308E-1,1.941561999E-1
1.200688468E0,-1.893682219E-2,-1.563815027E-1,-1.191187203E-1,1.974918914E-1
1.202831199E0,-1.527163107E-2,-1.655444801E-1,-1.203404516E-1,2.052316299E-1
1.204731352E0,-1.588249579E-2,-1.704314053E-1,-1.191187203E-1,2.085386945E-1
1.206674076E0,-1.099557430E-2,-1.850921661E-1,-1.203404516E-1,2.210471372E-1
1.208845929E0,-8.552113548E-3,-2.040289938E-1,-1.197295859E-1,2.367195445E-1
1.210832622E0,-8.552113548E-3,-2.223549485E-1,-1.215621829E-1,2.535591175E-1
1.212900852E0,-6.108652335E-3,-2.327396572E-1,-1.215621829E-1,2.626450608E-1
1.214827268E0,-6.108652335E-3,-2.522873580E-1,-1.240056455E-1,2.811825506E-1
1.217003160E0,-2.443460980E-3,-2.681698501E-1,-1.252273768E-1,2.959779298E-1
1.218964153E0,-5.497787148E-3,-2.736676335E-1,-1.233947799E-1,3.002506803E-1
1.221105468E0,-2.443460980E-3,-2.803871334E-1,-1.246165112E-1,3.068422883E-1
1.223203006E0,-1.832595794E-3,-2.828305960E-1,-1.227839142E-1,3.083381164E-1
1.225162391E0,-1.221730490E-3,-2.742784917E-1,-1.172861308E-1,2.983055818E-1
1.227161468E0,-3.054326167E-3,-2.675589919E-1,-1.111774743E-1,2.897543336E-1
1.229277622E0,-3.054326167E-3,-2.504547536E-1,-1.038470939E-1,2.711478037E-1
1.231264391E0,-1.832595794E-3,-2.241875380E-1,-9.346238524E-2,2.428963319E-1
1.233332929E0,-3.665191587E-3,-1.936442852E-1,-8.674286306E-2,2.122165571E-1
1.235334768E0,-3.665191587E-3,-1.759291887E-1,-8.063421398E-2,1.935623660E-1
1.237435391E0,-4.276056774E-3,-1.453859210E-1,-6.963863969E-2,1.612603201E-1
1.239395537E0,-2.443460980E-3,-1.056796908E-1,-5.864306539E-2,1.208849729E-1
1.241538352E0,0.000000000E0,-9.162978828E-2,-5.681046844E-2,1.078120931E-1
1.243680083E0,6.108652451E-4,-6.352998316E-2,-4.703662544E-2,7.904983270E-2
1.245580429E0,3.665191587E-3,-3.604105115E-2,-4.459316283E-2,5.745381771E-2
1.247541999E0,5.497787148E-3,-1.954768784E-2,-4.214970022E-2,4.678605554E-2
1.249695891E0,6.719517522E-3,-1.527163107E-2,-4.092797264E-2,4.419811734E-2
1.251635460E0,7.941247895E-3,-1.038470957E-2,-4.337143153E-2,4.529885963E-2
1.253750698E0,9.162978269E-3,-1.527163107E-2,-5.009094998E-2,5.316282683E-2
1.255655153E0,7.941247895E-3,-1.771509275E-2,-5.253441259E-2,5.600671777E-2
1.257852660E0,8.552113548E-3,-2.993239649E-2,-6.108652428E-2,6.856128976E-2
1.260161653E0,1.160643995E-2,-4.398229718E-2,-6.963863969E-2,8.317867546E-2
1.261916314E0,1.099557430E-2,-5.803219974E-2,-8.246681094E-2,1.014367476E-1
1.263978814E0,1.160643995E-2,-6.902777404E-2,-9.101892263E-2,1.148215455E-1
1.265941545E0,1.404990070E-2,-8.124507964E-2,-1.075122803E-1,1.354882028E-1
1.267829883E0,1.771509275E-2,-9.896016866E-2,-1.209513173E-1,1.572773367E-1
1.270057621E0,1.710422710E-2,-1.056796908E-1,-1.307251602E-1,1.689669174E-1
1.272044160E0,1.954768784E-2,-1.221730486E-1,-1.429424733E-1,1.890526820E-1
1.274112468E0,2.260201424E-2,-1.350012124E-1,-1.539380401E-1,2.059929576E-1
1.275985845E0,2.626720630E-2,-1.484402567E-1,-1.631010175E-1,2.220955151E-1
1.278215275E0,2.565634064E-2,-1.545489132E-1,-1.655444801E-1,2.279223317E-1
1.280249660E0,2.626720630E-2,-1.661553532E-1,-1.692096740E-1,2.385989968E-1
1.282317621E0,2.565634064E-2,-1.747074574E-1,-1.722639948E-1,2.466897392E-1
1.284460852E0,2.199114859E-2,-1.826487035E-1,-1.722639948E-1,2.520298462E-1
1.286361468E0,2.015855350E-2,-1.850921661E-1,-1.734857261E-1,2.544853127E-1
1.288229768E0,1.710422710E-2,-1.893682331E-1,-1.722639948E-1,2.565692230E-1
1.290476352E0,1.099557430E-2,-1.899790913E-1,-1.661553532E-1,2.526273128E-1
1.292395922E0,6.719517522E-3,-1.887573600E-1,-1.618792862E-1,2.487556957E-1
1.294530737E0,2.443460980E-3,-1.820378453E-1,-1.502728462E-1,2.360628643E-1
1.296436691E0,-3.665191587E-3,-1.710422635E-1,-1.398881376E-1,2.209922636E-1
1.298632891E0,-6.719517522E-3,-1.502728462E-1,-1.227839142E-1,1.941725259E-1
1.300608037E0,-9.162978269E-3,-1.441642046E-1,-1.166752651E-1,1.856889753E-1
1.302734852E0,-1.466076635E-2,-1.215621829E-1,-9.773843735E-2,1.566687733E-1
1.304831698E0,-2.138028294E-2,-9.590584040E-2,-8.185594529E-2,1.278883986E-1
1.306791506E0,-2.199114859E-2,-8.368854225E-2,-7.574728876E-2,1.150001499E-1
1.308687691E0,-2.382374369E-2,-5.986479297E-2,-6.047565863E-2,8.836667634E-2
1.310904660E0,-2.626720630E-2,-3.848451003E-2,-4.948008433E-2,6.796544993E-2
1.312856191E0,-2.809980139E-2,-2.260201424E-2,-4.276056588E-2,5.593671317E-2
1.314958429E0,-2.626720630E-2,-1.832595654E-2,-4.153883830E-2,5.245266339E-2
1.316892730E0,-3.115412779E-2,-1.221730467E-2,-4.214970022E-2,5.381857896E-2
1.319059621E0,-3.115412779E-2,-1.466076635E-2,-4.337143153E-2,5.537687984E-2
1.321001806E0,-2.932153270E-2,-2.076941915E-2,-5.192354694E-2,6.314408744E-2
1.323161429E0,-2.932153270E-2,-2.321287990E-2,-5.375614017E-2,6.548520962E-2
1.325303660E0,-2.687807009E-2,-3.298672289E-2,-6.047565863E-2,7.394497836E-2
1.327203083E0,-2.382374369E-2,-4.886921868E-2,-6.963863969E-2,8.834767363E-2
1.329089076E0,-2.443460934E-2,-5.497787148E-2,-7.330382615E-2,9.483178483E-2
1.331318198E0,-1.832595654E-2,-6.841690838E-2,-8.307767659E-2,1.091724067E-1
1.333203306E0,-1.343903504E-2,-8.491026610E-2,-9.346238524E-2,1.269865284E-1
1.335372775E0,-1.038470957E-2,-1.020144969E-1,-1.062905490E-1,1.476904892E-1
1.337284114E0,-4.886921961E-3,-1.123992056E-1,-1.117883399E-1,1.586004299E-1
1.339474506E0,1.832595794E-3,-1.295034289E-1,-1.191187203E-1,1.759652410E-1
1.341409999E0,9.162978269E-3,-1.441642046E-1,-1.270599663E-1,1.923837652E-1
1.343576775E0,1.343903504E-2,-1.490511149E-1,-1.282816976E-1,1.971117360E-1
1.345674544E0,1.832595654E-2,-1.612684280E-1,-1.350012124E-1,2.111129411E-1
1.347637198E0,2.382374369E-2,-1.698205322E-1,-1.362229437E-1,2.190051924E-1
1.349636890E0,3.543018550E-2,-1.753183305E-1,-1.429424733E-1,2.289636778E-1
1.351751621E0,3.604105115E-2,-1.777617931E-1,-1.466076523E-1,2.332209600E-1
1.353739237E0,4.276056588E-2,-1.850921661E-1,-1.527163088E-1,2.437413525E-1
1.355807660E0,4.459316283E-2,-1.881465018E-1,-1.557706445E-1,2.482985099E-1
1.357729306E0,4.948008433E-2,-1.905899495E-1,-1.612684280E-1,2.545197703E-1
1.359910275E0,5.009094998E-2,-1.924225539E-1,-1.606575549E-1,2.556294045E-1
1.361873191E0,5.681046844E-2,-1.924225539E-1,-1.618792862E-1,2.577959888E-1
1.364012198E0,5.619960278E-2,-1.893682331E-1,-1.557706445E-1,2.515615566E-1
1.366153929E0,5.803219974E-2,-1.850921661E-1,-1.508837193E-1,2.457493498E-1
1.368055660E0,5.803219974E-2,-1.838704348E-1,-1.508837193E-1,2.448304919E-1
1.369926460E0,5.803219974E-2,-1.740965992E-1,-1.423316002E-1,2.322404928E-1
1.372170083E0,5.803219974E-2,-1.679879427E-1,-1.356120855E-1,2.235583208E-1
1.374054729E0,5.803219974E-2,-1.612684280E-1,-1.301143020E-1,2.151859049E-1
1.376224967E0,5.619960278E-2,-1.484402567E-1,-1.227839142E-1,2.006708617E-1
1.378140653E0,5.497787148E-2,-1.343903542E-1,-1.172861308E-1,1.866530742E-1
1.380326929E0,5.436700583E-2,-1.288925707E-1,-1.099557430E-1,1.779306930E-1
1.382293883E0,4.703662544E-2,-1.123992056E-1,-1.056796908E-1,1.612892513E-1
1.384429467E0,4.581489414E-2,-1.038470939E-1,-1.007927656E-1,1.517972498E-1
1.386527159E0,4.337143153E-2,-9.468411654E-2,-9.957103431E-2,1.440852313E-1
1.388485506E0,4.031710699E-2,-9.407325089E-2,-9.957103431E-2,1.427922845E-1
1.390455691E0,3.543018550E-2,-9.040805697E-2,-1.020144969E-1,1.408398821E-1
1.392600429E0,2.993239649E-2,-8.735372871E-2,-1.038470939E-1,1.389634527E-1
1.394485768E0,2.932153270E-2,-9.224065393E-2,-1.062905490E-1,1.437559436E-1
1.396654659E0,2.504547499E-2,-9.834930301E-2,-1.093448773E-1,1.491849973E-1
1.398655653E0,2.199114859E-2,-1.056796908E-1,-1.130100712E-1,1.562788657E-1
1.400756275E0,2.138028294E-2,-1.130100712E-1,-1.178969890E-1,1.647060798E-1
1.402776999E0,1.954768784E-2,-1.191187203E-1,-1.185078546E-1,1.691611458E-1
1.404857429E0,1.832595654E-2,-1.282816976E-1,-1.209513173E-1,1.772604180E-1
1.406999352E0,1.710422710E-2,-1.356120855E-1,-1.270599663E-1,1.866210796E-1
1.408899198E0,1.710422710E-2,-1.404990107E-1,-1.307251602E-1,1.926696502E-1
1.410853037E0,1.954768784E-2,-1.441642046E-1,-1.301143020E-1,1.951798186E-1
1.413013429E0,1.832595654E-2,-1.478293836E-1,-1.331686229E-1,1.998080315E-1
1.414890229E0,1.771509275E-2,-1.502728462E-1,-1.362229437E-1,2.035987308E-1
1.417067544E0,2.015855350E-2,-1.508837193E-1,-1.386664063E-1,2.059141478E-1
1.418991460E0,2.260201424E-2,-1.539380401E-1,-1.423316002E-1,2.108697600E-1
1.421168967E0,2.382374369E-2,-1.618792862E-1,-1.459967941E-1,2.192887091E-1
1.423109422E0,2.015855350E-2,-1.692096740E-1,-1.478293836E-1,2.255921269E-1
1.425270813E0,1.832595654E-2,-1.740965992E-1,-1.484402567E-1,2.295211893E-1
1.427367775E0,1.527163107E-2,-1.844813079E-1,-1.472185254E-1,2.365161092E-1
1.429329698E0,1.404990070E-2,-1.905899495E-1,-1.478293836E-1,2.416101306E-1
1.431279576E0,1.160643995E-2,-1.912008226E-1,-1.484402567E-1,2.423364888E-1
1.433444659E0,7.941247895E-3,-1.948660165E-1,-1.490511149E-1,2.454629558E-1
1.435419883E0,8.552113548E-3,-1.960877478E-1,-1.545489132E-1,2.498177537E-1
1.437499621E0,7.941247895E-3,-1.973094791E-1,-1.576032341E-1,2.526516838E-1
1.439408768E0,8.552113548E-3,-1.997529417E-1,-1.655444801E-1,2.595753287E-1
1.441602505E0,9.162978269E-3,-2.046398520E-1,-1.722639948E-1,2.676496089E-1
1.443636082E0,1.343903504E-2,-2.101376504E-1,-1.832595766E-1,2.791460409E-1
1.445704890E0,1.160643995E-2,-2.156354338E-1,-1.912008226E-1,2.884286815E-1
1.447847121E0,1.466076635E-2,-2.217440903E-1,-1.985312104E-1,2.979933240E-1
1.449747044E0,1.588249579E-2,-2.309070677E-1,-2.064724565E-1,3.101631874E-1
1.451633345E0,1.649336144E-2,-2.455678284E-1,-2.168571651E-1,3.280283820E-1
1.453861775E0,1.893682219E-2,-2.516764700E-1,-2.217440903E-1,3.359614418E-1
1.455728422E0,1.649336144E-2,-2.614503205E-1,-2.333505303E-1,3.508286919E-1
1.457916813E0,1.221730467E-2,-2.700024247E-1,-2.376265824E-1,3.598846545E-1
1.459833922E0,8.552113548E-3,-2.669481039E-1,-2.406809032E-1,3.595298680E-1
1.462019159E0,4.276056774E-3,-2.651155293E-1,-2.431243658E-1,3.597415542E-1
1.463976268E0,-4.886921961E-3,-2.651155293E-1,-2.406809032E-1,3.581025315E-1
1.466121544E0,-1.466076635E-2,-2.657263875E-1,-2.394591719E-1,3.580029973E-1
1.468219544E0,-2.504547499E-2,-2.614503205E-1,-2.406809032E-1,3.562454815E-1
1.470180582E0,-2.871066704E-2,-2.602286041E-1,-2.394591719E-1,3.548012455E-1
1.472179659E0,-4.031710699E-2,-2.461786866E-1,-2.327396572E-1,3.411702843E-1
1.474295044E0,-5.131268129E-2,-2.321287990E-1,-2.217440903E-1,3.250956969E-1
1.476281505E0,-5.558873713E-2,-2.235766798E-1,-2.144137025E-1,3.147219015E-1
1.478349236E0,-6.658431143E-2,-2.058615834E-1,-2.003637999E-1,2.948866127E-1
1.480383274E0,-7.757988572E-2,-1.887573600E-1,-1.857030392E-1,2.759231748E-1
1.482451082E0,-8.307767659E-2,-1.692096740E-1,-1.728748679E-1,2.557724263E-1
1.484416383E0,-8.918632567E-2,-1.563815027E-1,-1.612684280E-1,2.416958439E-1
1.486552467E0,-9.224065393E-2,-1.295034289E-1,-1.484402567E-1,2.175177835E-1
1.488693967E0,-9.834930301E-2,-1.093448773E-1,-1.319468915E-1,1.975825645E-1
1.490592851E0,-1.026253626E-1,-9.651670605E-2,-1.233947799E-1,1.872797674E-1
1.492537152E0,-1.069014147E-1,-7.391469181E-2,-1.105666086E-1,1.706348999E-1
1.494707390E0,-1.111774743E-1,-5.436700583E-2,-1.020144969E-1,1.603844122E-1
1.496578652E0,-1.166752651E-1,-3.909537569E-2,-1.001819000E-1,1.586757038E-1
1.498762351E0,-1.191187203E-1,-3.054326214E-2,-9.957103431E-2,1.582294260E-1
1.500670960E0,-1.227839142E-1,-2.687807009E-2,-1.032362282E-1,1.626531250E-1
1.502864390E0,-1.270599663E-1,-2.626720630E-2,-1.099557430E-1,1.700719453E-1
1.505161229E0,-1.313360333E-1,-3.359758854E-2,-1.191187203E-1,1.804639054E-1
1.506926928E0,-1.295034289E-1,-4.214970022E-2,-1.240056455E-1,1.841877723E-1
1.508989236E0,-1.325577646E-1,-5.742133409E-2,-1.337794960E-1,1.968901321E-1
1.510950967E0,-1.356120855E-1,-7.941248268E-2,-1.423316002E-1,2.120265656E-1
1.512950428E0,-1.380555481E-1,-9.162978828E-2,-1.441642046E-1,2.196330356E-1
1.515066236E0,-1.392772794E-1,-1.136209369E-1,-1.502728462E-1,2.342857361E-1
1.516924999E0,-1.411098689E-1,-1.307251602E-1,-1.563815027E-1,2.479036850E-1
1.519121351E0,-1.368338168E-1,-1.417207420E-1,-1.594358236E-1,2.534325235E-1
1.521155120E0,-1.386664063E-1,-1.576032341E-1,-1.618792862E-1,2.650887680E-1
1.523223813E0,-1.301143020E-1,-1.704314053E-1,-1.679879427E-1,2.723904264E-1
1.525216152E0,-1.227839142E-1,-1.905899495E-1,-1.740965992E-1,2.858496883E-1
1.527326967E0,-1.178969890E-1,-1.954768747E-1,-1.765400618E-1,2.885780691E-1
1.529469851E0,-1.117883399E-1,-2.107485086E-1,-1.832595766E-1,3.008249312E-1
1.531369851E0,-1.044579595E-1,-2.223549485E-1,-1.857030392E-1,3.079590999E-1
1.533264499E0,-9.590584040E-2,-2.376265824E-1,-1.905899495E-1,3.193569347E-1
1.535485967E0,-9.407325089E-2,-2.449569702E-1,-1.924225539E-1,3.253922756E-1
1.537345306E0,-8.796459436E-2,-2.528982162E-1,-1.869247705E-1,3.265519062E-1
1.539541390E0,-8.552113175E-2,-2.614503205E-1,-1.832595766E-1,3.305362408E-1
1.541446037E0,-8.429940045E-2,-2.626720667E-1,-1.814269722E-1,3.301798749E-1
1.543643659E0,-8.124507964E-2,-2.608394623E-1,-1.765400618E-1,3.252758544E-1
1.545599114E0,-7.880161703E-2,-2.541199327E-1,-1.716531366E-1,3.166250690E-1
1.547744928E0,-7.696902007E-2,-2.425135076E-1,-1.655444801E-1,3.035490180E-1
1.549842543E0,-7.819075137E-2,-2.351831198E-1,-1.612684280E-1,2.956897010E-1
1.551802120E0,-7.574728876E-2,-2.131919712E-1,-1.533271819E-1,2.733087870E-1
1.553674652E0,-7.574728876E-2,-1.857030392E-1,-1.411098689E-1,2.452249286E-1
1.555917274E0,-7.147123665E-2,-1.594358236E-1,-1.313360333E-1,2.185796723E-1
1.557790806E0,-6.963863969E-2,-1.447750628E-1,-1.252273768E-1,2.036940226E-1
1.559972659E0,-6.963863969E-2,-1.191187203E-1,-1.178969890E-1,1.814896958E-1
1.561901999E0,-6.536258012E-2,-9.407325089E-2,-1.050688252E-1,1.554397035E-1
1.564075582E0,-6.597344577E-2,-8.063421398E-2,-1.001819000E-1,1.445364490E-1
1.566036114E0,-6.597344577E-2,-5.558873713E-2,-9.285151958E-2,1.267438674E-1
1.568178890E0,-6.475171447E-2,-3.115412779E-2,-8.368854225E-2,1.103047429E-1
1.570320659E0,-6.291911751E-2,-1.282817032E-2,-7.696902007E-2,1.002377541E-1
1.572220582E0,-6.291911751E-2,-2.443460980E-3,-7.574728876E-2,9.850095230E-2
1.574088806E0,-6.536258012E-2,1.710422710E-2,-6.841690838E-2,9.615453612E-2
1.576335120E0,-7.086037099E-2,3.604105115E-2,-5.986479297E-2,9.951855597E-2
1.578209922E0,-7.086037099E-2,4.214970022E-2,-5.803219974E-2,1.008242313E-1
1.580389082E0,-7.696902007E-2,6.230825558E-2,-4.764748737E-2,1.098946396E-1
1.582308191E0,-8.124507964E-2,7.880161703E-2,-3.909537569E-2,1.197451720E-1
1.584490466E0,-9.101892263E-2,9.285151958E-2,-2.626720630E-2,1.326492182E-1
1.586438883E0,-9.712757170E-2,1.001819000E-1,-2.260201424E-2,1.413542688E-1
1.588592389E0,-1.081231460E-1,1.154535338E-1,-8.552113548E-3,1.584085598E-1
1.590689197E0,-1.154535338E-1,1.215621829E-1,6.108652451E-4,1.676521874E-1
1.592652813E0,-1.185078546E-1,1.276708394E-1,5.497787148E-3,1.742818996E-1
1.594650928E0,-1.252273768E-1,1.374446750E-1,1.588249579E-2,1.866150805E-1
1.596766774E0,-1.325577646E-1,1.429424733E-1,2.443460934E-2,1.964717837E-1
1.598635537E0,-1.362229437E-1,1.514945775E-1,3.298672289E-2,2.063865821E-1
1.600820620E0,-1.380555481E-1,1.551597714E-1,3.787364438E-2,2.111120602E-1
1.602732652E0,-1.435533315E-1,1.600466967E-1,4.642575979E-2,2.199496653E-1
1.604921851E0,-1.441642046E-1,1.643227488E-1,5.436700583E-2,2.252577523E-1
1.606915614E0,-1.441642046E-1,1.685988009E-1,5.925392732E-2,2.296081476E-1
1.609023428E0,-1.441642046E-1,1.679879427E-1,6.108652428E-2,2.296406546E-1
1.611165428E0,-1.447750628E-1,1.698205322E-1,6.841690838E-2,2.334088801E-1
1.613064659E0,-1.459967941E-1,1.692096740E-1,7.147123665E-2,2.346382649E-1
1.614919960E0,-1.423316002E-1,1.655444801E-1,7.391469181E-2,2.304921712E-1
1.617179082E0,-1.447750628E-1,1.600466967E-1,7.880161703E-2,2.297486861E-1
1.619092191E0,-1.411098689E-1,1.514945775E-1,8.246681094E-2,2.228528147E-1
1.621233082E0,-1.398881376E-1,1.423316002E-1,8.674286306E-2,2.176035380E-1
1.623213460E0,-1.362229437E-1,1.392772794E-1,8.735372871E-2,2.135076693E-1
1.625334697E0,-1.374446750E-1,1.288925707E-1,8.735372871E-2,2.076896901E-1
1.627340652E0,-1.350012124E-1,1.191187203E-1,8.796459436E-2,2.003805548E-1
1.629437043E0,-1.331686229E-1,1.123992056E-1,8.918632567E-2,1.957591996E-1
1.631534120E0,-1.343903542E-1,1.093448773E-1,8.796459436E-2,1.943060456E-1
1.633494966E0,-1.343903542E-1,1.007927656E-1,8.857546002E-2,1.899093494E-1
1.635380537E0,-1.288925707E-1,9.224065393E-2,8.735372871E-2,1.809759845E-1
1.637611120E0,-1.282816976E-1,9.285151958E-2,8.979719132E-2,1.820470659E-1
1.639598082E0,-1.233947799E-1,8.307767659E-2,9.040805697E-2,1.740740900E-1
1.641666505E0,-1.203404516E-1,7.452555746E-2,9.040805697E-2,1.679568390E-1
1.643591499E0,-1.148426682E-1,7.024950534E-2,9.407325089E-2,1.642364392E-1
1.645770235E0,-1.093448773E-1,6.780604273E-2,9.468411654E-2,1.597468108E-1
1.647789999E0,-1.050688252E-1,6.291911751E-2,9.712757170E-2,1.563075128E-1
1.649873197E0,-1.007927656E-1,6.475171447E-2,1.014036313E-1,1.569543327E-1
1.652016043E0,-9.651670605E-2,6.414084882E-2,1.038470939E-1,1.556076539E-1
1.653915505E0,-9.346238524E-2,6.597344577E-2,1.062905490E-1,1.561582333E-1
1.655815345E0,-9.285151958E-2,7.024950534E-2,1.130100712E-1,1.622580472E-1
1.658030274E0,-9.285151958E-2,7.269296050E-2,1.215621829E-1,1.693606669E-1
1.659876229E0,-9.101892263E-2,7.513642311E-2,1.264491081E-1,1.729719726E-1
1.662085158E0,-8.979719132E-2,7.819075137E-2,1.313360333E-1,1.772751613E-1
1.664022845E0,-8.857546002E-2,8.552113175E-2,1.404990107E-1,1.868139398E-1
1.666187197E0,-8.979719132E-2,8.307767659E-2,1.453859210E-1,1.900065839E-1
1.668126037E0,-8.796459436E-2,8.979719132E-2,1.527163088E-1,1.977968059E-1
1.670289005E0,-8.735372871E-2,9.896016866E-2,1.618792862E-1,2.088748242E-1
1.672386466E0,-8.307767659E-2,1.093448773E-1,1.673770845E-1,2.165024040E-1
1.674346928E0,-8.246681094E-2,1.154535338E-1,1.716531366E-1,2.226995570E-1
1.676231768E0,-7.696902007E-2,1.209513173E-1,1.753183305E-1,2.264728863E-1
1.678462620E0,-6.963863969E-2,1.325577646E-1,1.795943826E-1,2.338273795E-1
1.680448812E0,-6.780604273E-2,1.423316002E-1,1.808161139E-1,2.398966671E-1
1.682517120E0,-6.475171447E-2,1.478293836E-1,1.826487035E-1,2.437352253E-1
1.684419806E0,-6.475171447E-2,1.569923609E-1,1.820378453E-1,2.489521300E-1
1.686620197E0,-6.352998316E-2,1.631010175E-1,1.802052408E-1,2.512208779E-1
1.688654697E0,-6.414084882E-2,1.643227488E-1,1.826487035E-1,2.539223565E-1
1.690722312E0,-6.536258012E-2,1.661553532E-1,1.789835095E-1,2.528140917E-1
1.692865428E0,-6.536258012E-2,1.612684280E-1,1.789835095E-1,2.496294643E-1
1.694765620E0,-6.719517708E-2,1.533271819E-1,1.802052408E-1,2.459641140E-1
1.696707960E0,-6.902777404E-2,1.484402567E-1,1.789835095E-1,2.425581169E-1
1.698880351E0,-7.208210230E-2,1.398881376E-1,1.789835095E-1,2.383267026E-1
1.700742268E0,-7.757988572E-2,1.325577646E-1,1.814269722E-1,2.377097934E-1
1.702934543E0,-8.002334833E-2,1.288925707E-1,1.838704348E-1,2.383807204E-1
1.704845114E0,-8.613199741E-2,1.221730486E-1,1.863138974E-1,2.388678361E-1
1.707036966E0,-9.285151958E-2,1.117883399E-1,1.930334121E-1,2.416194028E-1
1.708987037E0,-1.014036313E-1,1.062905490E-1,2.015855312E-1,2.494335656E-1
1.711140004E0,-1.062905490E-1,1.056796908E-1,2.058615834E-1,2.546465577E-1
1.713237158E0,-1.209513173E-1,1.001819000E-1,2.180788964E-1,2.687453056E-1
1.715197158E0,-1.295034289E-1,9.834930301E-2,2.266310006E-1,2.789360750E-1
1.717136575E0,-1.386664063E-1,1.038470939E-1,2.388483137E-1,2.950611938E-1
1.719313466E0,-1.459967941E-1,1.050688252E-1,2.449569702E-1,3.039053128E-1
1.721300235E0,-1.514945775E-1,1.087340117E-1,2.535090744E-1,3.147070751E-1
1.723369004E0,-1.600466967E-1,1.111774743E-1,2.632829249E-1,3.275565210E-1
1.725271075E0,-1.661553532E-1,1.136209369E-1,2.700024247E-1,3.367768223E-1
1.727472120E0,-1.692096740E-1,1.154535338E-1,2.791654170E-1,3.462582306E-1
1.729411345E0,-1.783726513E-1,1.209513173E-1,2.901609838E-1,3.614407564E-1
1.731575158E0,-1.844813079E-1,1.270599663E-1,2.962696552E-1,3.714206464E-1
1.733718312E0,-1.881465018E-1,1.276708394E-1,3.036000133E-1,3.793045181E-1
1.735618274E0,-1.985312104E-1,1.307251602E-1,3.139847219E-1,3.938148228E-1
1.737491652E0,-2.076941878E-1,1.337794960E-1,3.219259977E-1,4.057957333E-1
1.739734427E0,-2.156354338E-1,1.374446750E-1,3.262020350E-1,4.144845553E-1
1.741721350E0,-2.205223590E-1,1.362229437E-1,3.274237812E-1,4.176040393E-1
1.743790004E0,-2.278527319E-1,1.380555481E-1,3.323107064E-1,4.259185455E-1
1.745693152E0,-2.406809032E-1,1.429424733E-1,3.304781020E-1,4.331000158E-1
1.747893273E0,-2.461786866E-1,1.441642046E-1,3.316998184E-1,4.375066093E-1
1.750198498E0,-2.565633953E-1,1.423316002E-1,3.329215646E-1,4.437564967E-1
1.751956312E0,-2.651155293E-1,1.404990107E-1,3.286454976E-1,4.450102009E-1
1.754018158E0,-2.742784917E-1,1.411098689E-1,3.298672438E-1,4.516116525E-1
1.755979812E0,-2.761110961E-1,1.392772794E-1,3.268128932E-1,4.499357344E-1
1.757831922E0,-2.822197378E-1,1.325577646E-1,3.200933933E-1,4.468549225E-1
1.760095081E0,-2.864958048E-1,1.319468915E-1,3.115412891E-1,4.433371213E-1
1.762081312E0,-2.889392674E-1,1.319468915E-1,3.078760803E-1,4.423613492E-1
1.764149427E0,-2.926044464E-1,1.276708394E-1,3.005456924E-1,4.384574307E-1
1.766183196E0,-2.895501256E-1,1.209513173E-1,2.926044464E-1,4.290522794E-1
1.768252120E0,-2.926044464E-1,1.185078546E-1,2.840523422E-1,4.246730587E-1
1.770225075E0,-2.913827300E-1,1.142318025E-1,2.785545588E-1,4.189814343E-1
1.772353196E0,-2.883284092E-1,1.050688252E-1,2.718350291E-1,4.099597695E-1
1.774495850E0,-2.871066630E-1,9.834930301E-2,2.675589919E-1,4.045869937E-1
1.776394658E0,-2.846632004E-1,9.224065393E-2,2.638937831E-1,3.989754437E-1
1.778288075E0,-2.785545588E-1,8.185594529E-2,2.614503205E-1,3.907036064E-1
1.780508773E0,-2.724458873E-1,7.269296050E-2,2.590068579E-1,3.828780229E-1
1.782380268E0,-2.632829249E-1,6.658431143E-2,2.547308207E-1,3.723427991E-1
1.784562850E0,-2.608394623E-1,6.352998316E-2,2.541199327E-1,3.696623108E-1
1.786470421E0,-2.516764700E-1,5.864306539E-2,2.547308207E-1,3.628606422E-1
1.788664735E0,-2.406809032E-1,6.169738993E-2,2.522873580E-1,3.540943040E-1
1.790629191E0,-2.400700450E-1,6.475171447E-2,2.547308207E-1,3.559693835E-1
1.792767273E0,-2.284636050E-1,7.391469181E-2,2.535090744E-1,3.491788243E-1
1.794864389E0,-2.186897546E-1,8.002334833E-2,2.492330223E-1,3.410953598E-1
1.796824696E0,-2.168571651E-1,9.407325089E-2,2.480112910E-1,3.426169976E-1
1.798714806E0,-2.125810981E-1,1.014036313E-1,2.504547536E-1,3.438037279E-1
1.800940081E0,-2.076941878E-1,1.111774743E-1,2.498438805E-1,3.433937551E-1
1.802848306E0,-1.991420686E-1,1.227839142E-1,2.535090744E-1,3.449642067E-1
1.804994312E0,-1.942551434E-1,1.307251602E-1,2.583959997E-1,3.487013348E-1
1.806982614E0,-1.918116808E-1,1.356120855E-1,2.632829249E-1,3.528459397E-1
1.809096042E0,-1.863138974E-1,1.447750628E-1,2.669481039E-1,3.562779496E-1
1.811033345E0,-1.789835095E-1,1.533271819E-1,2.663372457E-1,3.556400566E-1
1.813197850E0,-1.722639948E-1,1.576032341E-1,2.693915665E-1,3.564905039E-1
1.815339581E0,-1.643227488E-1,1.649336219E-1,2.700024247E-1,3.565198098E-1
1.817239081E0,-1.569923609E-1,1.771509200E-1,2.736676335E-1,3.618328668E-1
1.819126114E0,-1.478293836E-1,1.893682331E-1,2.755002379E-1,3.655328104E-1
1.821354581E0,-1.459967941E-1,1.918116808E-1,2.730567753E-1,3.642345224E-1
1.823213921E0,-1.337794960E-1,1.973094791E-1,2.736676335E-1,3.629351977E-1
1.825409735E0,-1.276708394E-1,2.028072625E-1,2.724458873E-1,3.628462353E-1
1.827332229E0,-1.227839142E-1,2.040289938E-1,2.706133127E-1,3.604653727E-1
1.829512504E0,-1.172861308E-1,2.028072625E-1,2.626720667E-1,3.519707897E-1
1.831465921E0,-1.093448773E-1,1.966986060E-1,2.504547536E-1,3.367108959E-1
1.833614850E0,-1.038470939E-1,1.948660165E-1,2.388483137E-1,3.252775742E-1
1.835711965E0,-1.001819000E-1,1.960877478E-1,2.315179259E-1,3.195111390E-1
1.837675850E0,-9.590584040E-2,1.887573600E-1,2.150245607E-1,3.017661891E-1
1.839544498E0,-9.162978828E-2,1.765400618E-1,1.979203373E-1,2.805973476E-1
1.841791658E0,-8.491026610E-2,1.624901593E-1,1.826487035E-1,2.587921058E-1
1.843611498E0,-8.063421398E-2,1.514945775E-1,1.716531366E-1,2.427288256E-1
1.845846735E0,-8.063421398E-2,1.295034289E-1,1.582140923E-1,2.197833332E-1
1.847786883E0,-7.635815442E-2,1.032362282E-1,1.435533315E-1,1.926028181E-1
1.849949388E0,-7.452555746E-2,9.224065393E-2,1.331686229E-1,1.783151117E-1
1.851847845E0,-7.024950534E-2,6.597344577E-2,1.221730486E-1,1.556076551E-1
1.854052196E0,-6.963863969E-2,3.970624134E-2,1.099557430E-1,1.360749468E-1
1.856194850E0,-6.841690838E-2,1.588249579E-2,1.007927656E-1,1.228507575E-1
1.858095735E0,-6.841690838E-2,6.108652335E-3,9.651670605E-2,1.184637646E-1
1.859922537E0,-6.841690838E-2,-1.466076635E-2,8.613199741E-2,1.109708628E-1
1.862211158E0,-7.024950534E-2,-3.054326214E-2,8.429940045E-2,1.139046653E-1
1.864010268E0,-7.086037099E-2,-3.909537569E-2,8.246681094E-2,1.155439980E-1
1.866267004E0,-7.513642311E-2,-5.619960278E-2,7.941248268E-2,1.229236342E-1
1.868124075E0,-7.574728876E-2,-7.086037099E-2,7.635815442E-2,1.287998901E-1
1.870369465E0,-7.574728876E-2,-8.246681094E-2,7.696902007E-2,1.358773591E-1
1.872273191E0,-7.941248268E-2,-8.368854225E-2,7.819075137E-2,1.393696815E-1
1.874471965E0,-7.880161703E-2,-9.162978828E-2,7.574728876E-2,1.426301676E-1
1.876569504E0,-7.941248268E-2,-9.346238524E-2,7.330382615E-2,1.428811072E-1
1.878529465E0,-7.452555746E-2,-9.407325089E-2,7.086037099E-2,1.393736970E-1
1.880344883E0,-7.452555746E-2,-9.346238524E-2,6.963863969E-2,1.383431108E-1
1.882644235E0,-6.963863969E-2,-8.796459436E-2,6.719517708E-2,1.307765339E-1
1.884465114E0,-6.902777404E-2,-8.002334833E-2,6.963863969E-2,1.265626722E-1
1.886699388E0,-6.475171447E-2,-7.391469181E-2,6.963863969E-2,1.204396377E-1
1.888558498E0,-6.108652428E-2,-6.597344577E-2,7.208210230E-2,1.152383984E-1
1.890802119E0,-5.986479297E-2,-5.742133409E-2,7.024950534E-2,1.087014077E-1
1.892692921E0,-5.558873713E-2,-4.459316283E-2,6.963863969E-2,9.964034326E-2
1.894905081E0,-5.803219974E-2,-4.276056588E-2,6.658431143E-2,9.813089589E-2
1.897048004E0,-5.619960278E-2,-3.176499158E-2,6.352998316E-2,9.057300262E-2
1.898948081E0,-5.497787148E-2,-2.076941915E-2,5.681046844E-2,8.173961370E-2
1.900769460E0,-5.375614017E-2,-1.221730467E-2,5.314527452E-2,7.657287603E-2
1.903063850E0,-5.619960278E-2,2.443460980E-3,4.886921868E-2,7.451554461E-2
1.904870998E0,-5.925392732E-2,1.282817032E-2,4.459316283E-2,7.526048119E-2
1.907119119E0,-6.047565863E-2,2.076941915E-2,4.276056588E-2,7.692294880E-2
1.908977960E0,-6.108652428E-2,2.382374369E-2,4.031710699E-2,7.697144489E-2
1.911221350E0,-5.986479297E-2,3.176499158E-2,3.665191308E-2,7.704654996E-2
1.913119152E0,-6.169738993E-2,2.687807009E-2,3.115412779E-2,7.415914141E-2
1.915324004E0,-6.169738993E-2,2.932153270E-2,2.809980139E-2,7.386419323E-2
1.917420927E0,-6.108652428E-2,2.871066704E-2,2.687807009E-2,7.265188574E-2
1.919383042E0,-5.986479297E-2,2.687807009E-2,2.199114859E-2,6.920863173E-2
1.921336306E0,-6.108652428E-2,2.382374369E-2,1.954768784E-2,6.841963396E-2
1.923498811E0,-5.986479297E-2,2.015855350E-2,1.832595654E-2,6.577234525E-2
1.925351383E0,-5.681046844E-2,1.343903504E-2,2.260201424E-2,6.260102263E-2
1.927552888E0,-5.375614017E-2,6.108652335E-3,2.382374369E-2,5.911521803E-2
1.929587273E0,-4.825835302E-2,-1.221730490E-3,2.687807009E-2,5.525207610E-2
1.931655580E0,-4.886921868E-2,6.108652451E-4,2.932153270E-2,5.699408715E-2
1.933577344E0,-4.459316283E-2,-2.443460980E-3,3.420845419E-2,5.625601311E-2
1.935758811E0,-4.214970022E-2,-4.886921961E-3,3.787364438E-2,5.687611251E-2
1.937901696E0,-4.092797264E-2,-1.527163107E-2,4.031710699E-2,5.944569603E-2
1.939801465E0,-4.092797264E-2,-1.954768784E-2,4.092797264E-2,6.109263450E-2
1.941662998E0,-3.543018550E-2,-2.504547499E-2,4.092797264E-2,5.964623045E-2
1.943917773E0,-3.054326214E-2,-3.115412779E-2,4.520402849E-2,6.282415723E-2
1.945771075E0,-2.993239649E-2,-3.726277873E-2,4.703662544E-2,6.705898278E-2
1.947973427E0,-2.382374369E-2,-4.153883830E-2,5.131268129E-2,7.018573296E-2
1.949852344E0,-1.771509275E-2,-4.153883830E-2,5.497787148E-2,7.114679157E-2
1.952077734E0,-1.099557430E-2,-4.459316283E-2,6.047565863E-2,7.593917376E-2
1.954005344E0,-1.160643995E-2,-4.948008433E-2,5.864306539E-2,7.760152906E-2
1.956181619E0,-1.221730490E-3,-6.169738993E-2,6.230825558E-2,8.769480751E-2
1.958279542E0,7.330383174E-3,-6.352998316E-2,6.536258012E-2,9.144430085E-2
1.960241311E0,1.343903504E-2,-6.475171447E-2,6.597344577E-2,9.341246029E-2
1.962107268E0,1.710422710E-2,-6.780604273E-2,7.024950534E-2,9.912218226E-2
1.964357311E0,2.199114859E-2,-6.780604273E-2,7.574728876E-2,1.040140462E-1
1.966210729E0,2.504547499E-2,-6.719517708E-2,7.696902007E-2,1.051983730E-1
1.968413696E0,2.504547499E-2,-6.902777404E-2,7.880161703E-2,1.077116718E-1
1.970314806E0,2.993239649E-2,-6.902777404E-2,7.880161703E-2,1.089517177E-1
1.972516965E0,2.687807009E-2,-6.902777404E-2,7.941248268E-2,1.085983731E-1
1.974463921E0,2.260201424E-2,-6.719517708E-2,8.185594529E-2,1.082886820E-1
1.976619426E0,1.893682219E-2,-6.658431143E-2,8.002334833E-2,1.058102549E-1
1.978761850E0,1.038470957E-2,-5.925392732E-2,8.002334833E-2,1.001129681E-1
1.980662080E0,-2.443460980E-3,-5.436700583E-2,7.819075137E-2,9.526560462E-2
1.982644268E0,-6.719517522E-3,-5.619960278E-2,7.635815442E-2,9.504796165E-2
1.984777157E0,-2.199114859E-2,-5.375614017E-2,7.391469181E-2,9.400380252E-2
1.986763157E0,-3.359758854E-2,-5.497787148E-2,7.086037099E-2,9.577346441E-2
1.988830580E0,-4.764748737E-2,-5.558873713E-2,6.780604273E-2,9.979003046E-2
1.990719614E0,-5.375614017E-2,-5.436700583E-2,6.780604273E-2,1.021917480E-1
1.992931542E0,-6.841690838E-2,-6.108652428E-2,6.902777404E-2,1.147922924E-1
1.995255811E0,-8.368854225E-2,-6.780604273E-2,6.719517708E-2,1.269512637E-1
1.996993965E0,-8.613199741E-2,-7.086037099E-2,7.086037099E-2,1.321404758E-1
1.999055773E0,-9.957103431E-2,-7.696902007E-2,7.574728876E-2,1.468886404E-1
2.001016503E0,-1.032362282E-1,-8.735372871E-2,8.185594529E-2,1.580784252E-1
2.002896537E0,-1.081231460E-1,-8.796459436E-2,8.429940045E-2,1.628949768E-1
2.005131772E0,-1.087340117E-1,-8.918632567E-2,8.857546002E-2,1.662013781E-1
2.007046883E0,-1.142318025E-1,-8.735372871E-2,9.224065393E-2,1.708447156E-1
2.009187388E0,-1.148426682E-1,-8.552113175E-2,9.834930301E-2,1.737103561E-1
2.011109267E0,-1.166752651E-1,-8.246681094E-2,1.038470939E-1,1.766298709E-1
2.013290042E0,-1.191187203E-1,-8.552113175E-2,1.099557430E-1,1.832850210E-1
2.015247152E0,-1.209513173E-1,-8.674286306E-2,1.148426682E-1,1.879957017E-1
2.017393888E0,-1.227839142E-1,-8.491026610E-2,1.264491081E-1,1.956400261E-1
2.019537042E0,-1.246165112E-1,-8.429940045E-2,1.307251602E-1,1.993106402E-1
2.021438042E0,-1.313360333E-1,-7.819075137E-2,1.417207420E-1,2.084411571E-1
2.023357229E0,-1.374446750E-1,-6.414084882E-2,1.466076523E-1,2.109476022E-1
2.025553157E0,-1.417207420E-1,-4.825835302E-2,1.508837193E-1,2.125547791E-1
2.027428575E0,-1.472185254E-1,-4.886921868E-2,1.527163088E-1,2.176781242E-1
2.029608465E0,-1.563815027E-1,-4.642575979E-2,1.582140923E-1,2.272492565E-1
2.031505075E0,-1.631010175E-1,-4.337143153E-2,1.600466967E-1,2.325896990E-1
2.033710503E0,-1.710422635E-1,-3.665191308E-2,1.569923609E-1,2.350434429E-1
2.035653844E0,-1.783726513E-1,-3.359758854E-2,1.618792862E-1,2.432087663E-1
2.037812888E0,-1.869247705E-1,-2.321287990E-2,1.631010175E-1,2.491618942E-1
2.039910234E0,-1.979203373E-1,-9.773843922E-3,1.685988009E-1,2.601798294E-1
2.041869888E0,-1.973094791E-1,-1.221730490E-3,1.704314053E-1,2.607285698E-1
2.043770691E0,-2.028072625E-1,9.773843922E-3,1.728748679E-1,2.666683966E-1
2.045986195E0,-2.076941878E-1,1.832595654E-2,1.765400618E-1,2.732015918E-1
2.047973311E0,-2.076941878E-1,1.954768784E-2,1.789835095E-1,2.748710323E-1
2.050041926E0,-2.064724565E-1,2.076941915E-2,1.802052408E-1,2.748384487E-1
2.051944421E0,-2.064724565E-1,1.343903504E-2,1.875356287E-1,2.792509534E-1
2.054144118E0,-1.997529417E-1,-3.054326167E-3,1.850921661E-1,2.723411034E-1
2.056170691E0,-1.985312104E-1,-7.330383174E-3,1.832595766E-1,2.702821645E-1
2.058246465E0,-1.936442852E-1,-1.649336144E-2,1.808161139E-1,2.654517041E-1
2.060388888E0,-1.899790913E-1,-2.748893574E-2,1.808161139E-1,2.637084826E-1
2.062289003E0,-1.899790913E-1,-4.092797264E-2,1.795943826E-1,2.646153744E-1
2.064151075E0,-1.881465018E-1,-5.558873713E-2,1.753183305E-1,2.631078312E-1
2.066404080E0,-1.863138974E-1,-6.047565863E-2,1.704314053E-1,2.596479107E-1
2.068255883E0,-1.875356287E-1,-7.024950534E-2,1.710422635E-1,2.633629832E-1
2.070459003E0,-1.875356287E-1,-7.941248268E-2,1.704314053E-1,2.655613269E-1
2.072342575E0,-1.905899495E-1,-9.101892263E-2,1.692096740E-1,2.706305358E-1
2.074560849E0,-1.924225539E-1,-9.773843735E-2,1.637118906E-1,2.708889523E-1
2.076516344E0,-2.015855312E-1,-1.154535338E-1,1.649336219E-1,2.849023420E-1
2.078663618E0,-2.009746730E-1,-1.221730486E-1,1.606575549E-1,2.848296384E-1
2.080760734E0,-2.052507252E-1,-1.264491081E-1,1.600466967E-1,2.893651365E-1
2.082724118E0,-2.052507252E-1,-1.319468915E-1,1.563815027E-1,2.898154874E-1
2.084607421E0,-2.070833147E-1,-1.319468915E-1,1.588249654E-1,2.924360631E-1
2.086841080E0,-2.095267773E-1,-1.307251602E-1,1.600466967E-1,2.942880953E-1
2.088828580E0,-2.113593817E-1,-1.246165112E-1,1.624901593E-1,2.942874699E-1
2.090897157E0,-2.168571651E-1,-1.160643995E-1,1.673770845E-1,2.975114507E-1
2.092796037E0,-2.180788964E-1,-1.123992056E-1,1.685988009E-1,2.976869868E-1
2.094999772E0,-2.223549485E-1,-1.032362282E-1,1.753183305E-1,3.013900446E-1
2.097034157E0,-2.180788964E-1,-9.224065393E-2,1.844813079E-1,3.001667807E-1
2.099102503E0,-2.193006277E-1,-8.429940045E-2,1.979203373E-1,3.071996324E-1
2.101244195E0,-2.144137025E-1,-7.696902007E-2,2.046398520E-1,3.062269337E-1
2.103144503E0,-2.095267773E-1,-6.352998316E-2,2.113593817E-1,3.043194331E-1
2.105041383E0,-2.034181207E-1,-4.031710699E-2,2.174680233E-1,3.004941632E-1
2.107259734E0,-2.015855312E-1,-3.176499158E-2,2.193006277E-1,2.995638603E-1
2.109129729E0,-1.936442852E-1,-1.649336144E-2,2.174680233E-1,2.916547296E-1
2.111313964E0,-1.838704348E-1,-7.330383174E-3,2.205223590E-1,2.872145228E-1
2.113214383E0,-1.759291887E-1,3.054326167E-3,2.199114859E-1,2.816406753E-1
2.115416772E0,-1.747074574E-1,5.497787148E-3,2.217440903E-1,2.823532591E-1
2.117368383E0,-1.643227488E-1,2.443460980E-3,2.156354338E-1,2.711209630E-1
2.119519887E0,-1.514945775E-1,-5.497787148E-3,2.040289938E-1,2.541823421E-1
2.121617695E0,-1.472185254E-1,-1.466076635E-2,1.966986060E-1,2.461271499E-1
2.123578464E0,-1.441642046E-1,-1.649336144E-2,1.960877478E-1,2.439380120E-1
2.125468037E0,-1.374446750E-1,-3.176499158E-2,1.863138974E-1,2.336940772E-1
2.127694310E0,-1.282816976E-1,-4.031710699E-2,1.771509200E-1,2.224052867E-1
2.129637652E0,-1.258382350E-1,-4.092797264E-2,1.728748679E-1,2.177064085E-1
2.131751157E0,-1.215621829E-1,-3.848451003E-2,1.679879427E-1,2.108989585E-1
2.133650575E0,-1.185078546E-1,-3.543018550E-2,1.692096740E-1,2.095980044E-1
2.135855041E0,-1.160643995E-1,-3.115412779E-2,1.685988009E-1,2.070436673E-1
2.137796690E0,-1.160643995E-1,-3.054326214E-2,1.673770845E-1,2.059585495E-1
2.139959195E0,-1.166752651E-1,-3.787364438E-2,1.673770845E-1,2.075153461E-1
2.142102503E0,-1.209513173E-1,-4.214970022E-2,1.606575549E-1,2.054669519E-1
2.144003464E0,-1.209513173E-1,-4.398229718E-2,1.582140923E-1,2.039494119E-1
2.145926729E0,-1.185078546E-1,-4.581489414E-2,1.539380401E-1,1.995996902E-1
2.148120310E0,-1.166752651E-1,-5.436700583E-2,1.533271819E-1,2.001951886E-1
2.149985844E0,-1.111774743E-1,-5.803219974E-2,1.490511149E-1,1.947932284E-1
2.152176003E0,-1.081231460E-1,-5.803219974E-2,1.502728462E-1,1.940110286E-1
2.154133998E0,-9.957103431E-2,-5.986479297E-2,1.508837193E-1,1.904313028E-1
2.156279310E0,-9.407325089E-2,-5.558873713E-2,1.514945775E-1,1.867899656E-1
2.158216690E0,-9.224065393E-2,-5.742133409E-2,1.527163088E-1,1.874241682E-1
2.160382387E0,-8.552113175E-2,-6.047565863E-2,1.563815027E-1,1.882188717E-1
2.162479810E0,-8.491026610E-2,-6.658431143E-2,1.569923609E-1,1.904988851E-1
2.164441580E0,-8.002334833E-2,-7.391469181E-2,1.569923609E-1,1.910856335E-1
2.166329267E0,-7.819075137E-2,-7.269296050E-2,1.551597714E-1,1.883417500E-1
2.168557272E0,-7.696902007E-2,-6.658431143E-2,1.576032341E-1,1.876072492E-1
2.170480152E0,-7.696902007E-2,-7.330382615E-2,1.563815027E-1,1.890842547E-1
2.172613003E0,-8.491026610E-2,-7.819075137E-2,1.582140923E-1,1.958449537E-1
2.174647964E0,-8.552113175E-2,-8.124507964E-2,1.527163088E-1,1.929686449E-1
2.176717156E0,-8.979719132E-2,-8.491026610E-2,1.441642046E-1,1.898857729E-1
2.178660421E0,-9.040805697E-2,-8.857546002E-2,1.374446750E-1,1.868428954E-1
2.180821003E0,-8.857546002E-2,-8.857546002E-2,1.325577646E-1,1.823808795E-1
2.182963541E0,-8.796459436E-2,-7.269296050E-2,1.295034289E-1,1.726069943E-1
2.184862656E0,-8.796459436E-2,-6.230825558E-2,1.307251602E-1,1.694377647E-1
2.186759037E0,-9.040805697E-2,-5.131268129E-2,1.288925707E-1,1.655895613E-1
2.188979003E0,-9.040805697E-2,-4.703662544E-2,1.288925707E-1,1.643148067E-1
2.190965926E0,-9.101892263E-2,-3.909537569E-2,1.331686229E-1,1.659722109E-1
2.193034656E0,-8.979719132E-2,-3.359758854E-2,1.337794960E-1,1.645882349E-1
2.194957498E0,-9.407325089E-2,-3.298672289E-2,1.350012124E-1,1.678190328E-1
2.197137541E0,-9.651670605E-2,-3.787364438E-2,1.319468915E-1,1.678090274E-1
2.199155498E0,-9.957103431E-2,-4.398229718E-2,1.331686229E-1,1.719962658E-1
2.201240464E0,-1.020144969E-1,-4.825835302E-2,1.380555481E-1,1.783119754E-1
2.203338118E0,-1.044579595E-1,-4.642575979E-2,1.417207420E-1,1.820757677E-1
2.205297772E0,-1.044579595E-1,-4.703662544E-2,1.472185254E-1,1.865400860E-1
2.207175921E0,-1.050688252E-1,-4.092797264E-2,1.588249654E-1,1.947817409E-1
2.209413695E0,-1.056796908E-1,-3.848451003E-2,1.624901593E-1,1.976165642E-1
2.211318190E0,-1.020144969E-1,-3.726277873E-2,1.667662114E-1,1.990136717E-1
2.213469772E0,-1.001819000E-1,-2.932153270E-2,1.716531366E-1,2.009003849E-1
2.215499383E0,-9.712757170E-2,-1.588249579E-2,1.722639948E-1,1.983958235E-1
2.217572656E0,-9.834930301E-2,-1.099557430E-2,1.753183305E-1,2.013206524E-1
2.219489344E0,-9.773843735E-2,-1.832595794E-3,1.759291887E-1,2.012641051E-1
2.221675618E0,-9.590584040E-2,7.941247895E-3,1.765400618E-1,2.010656288E-1
2.223817887E0,-9.529497474E-2,1.466076635E-2,1.728748679E-1,1.979439068E-1
2.225717849E0,-9.468411654E-2,1.893682219E-2,1.692096740E-1,1.948219673E-1
2.227595383E0,-9.651670605E-2,1.710422710E-2,1.618792862E-1,1.892430512E-1
2.229833272E0,-9.712757170E-2,1.893682219E-2,1.527163088E-1,1.819742823E-1
2.231688113E0,-9.407325089E-2,1.832595654E-2,1.478293836E-1,1.761792947E-1
2.233888041E0,-9.651670605E-2,2.015855350E-2,1.374446750E-1,1.691534230E-1
2.235831806E0,-9.407325089E-2,2.382374369E-2,1.295034289E-1,1.618285679E-1
2.237990156E0,-9.590584040E-2,2.382374369E-2,1.197295859E-1,1.552439201E-1
2.240314810E0,-9.346238524E-2,1.710422710E-2,1.099557430E-1,1.453204647E-1
2.242052887E0,-9.346238524E-2,1.649336144E-2,1.062905490E-1,1.424953657E-1
2.244114849E0,-9.162978828E-2,8.552113548E-3,9.651670605E-2,1.333590315E-1
2.246075887E0,-9.285151958E-2,7.330383174E-3,9.529497474E-2,1.332526601E-1
2.247954537E0,-9.101892263E-2,3.665191587E-3,8.674286306E-2,1.257863355E-1
2.250192272E0,-8.979719132E-2,3.665191587E-3,8.002334833E-2,1.203358030E-1
2.252173729E0,-8.857546002E-2,6.108652451E-4,7.513642311E-2,1.161527759E-1
2.254247195E0,-8.735372871E-2,-1.832595794E-3,7.208210230E-2,1.132689799E-1
2.256160652E0,-9.101892263E-2,1.832595794E-3,7.086037099E-2,1.153646170E-1
2.258350272E0,-9.040805697E-2,4.276056774E-3,6.963863969E-2,1.141991312E-1
2.260384810E0,-9.285151958E-2,7.941247895E-3,6.719517708E-2,1.148897730E-1
2.262453272E0,-9.285151958E-2,1.221730467E-2,6.352998316E-2,1.131668060E-1
2.264595695E0,-9.407325089E-2,1.954768784E-2,6.352998316E-2,1.151865764E-1
2.266496156E0,-9.590584040E-2,2.748893574E-2,5.925392732E-2,1.160370618E-1
2.268352537E0,-9.407325089E-2,3.420845419E-2,5.681046844E-2,1.150974552E-1
2.270611271E0,-9.407325089E-2,5.009094998E-2,5.681046844E-2,1.207737932E-1
2.272469421E0,-9.101892263E-2,5.742133409E-2,5.619960278E-2,1.214086045E-1
2.274666425E0,-8.979719132E-2,6.841690838E-2,5.436700583E-2,1.253003601E-1
2.276583652E0,-8.613199741E-2,7.024950534E-2,5.375614017E-2,1.234643130E-1
2.278769079E0,-8.185594529E-2,7.147123665E-2,4.825835302E-2,1.189008077E-1
2.280698229E0,-8.002334833E-2,7.513642311E-2,4.703662544E-2,1.194222027E-1
2.282872695E0,-7.941248268E-2,7.513642311E-2,4.459316283E-2,1.180693637E-1
2.284970118E0,-8.002334833E-2,7.880161703E-2,4.398229718E-2,1.206145662E-1
2.286930579E0,-7.941248268E-2,8.613199741E-2,4.092797264E-2,1.240973905E-1
2.288839652E0,-7.513642311E-2,8.796459436E-2,3.481931984E-2,1.208124041E-1
2.291045733E0,-7.452555746E-2,8.796459436E-2,3.237585723E-2,1.197498422E-1
2.292923421E0,-7.391469181E-2,8.491026610E-2,2.199114859E-2,1.147028577E-1
2.295101656E0,-7.635815442E-2,8.307767659E-2,1.588249579E-2,1.139505233E-1
2.297136271E0,-7.574728876E-2,8.246681094E-2,1.038470957E-2,1.124556306E-1
2.299204694E0,-7.819075137E-2,8.368854225E-2,3.665191587E-3,1.145905726E-1
2.301163421E0,-8.246681094E-2,8.735372871E-2,-1.221730490E-3,1.201371776E-1
2.303307079E0,-8.491026610E-2,9.101892263E-2,-3.665191587E-3,1.245296398E-1
2.305449464E0,-8.429940045E-2,9.712757170E-2,-5.497787148E-3,1.287259871E-1
2.307349348E0,-8.368854225E-2,9.834930301E-2,-5.497787148E-3,1.292539484E-1
2.309200306E0,-8.552113175E-2,1.044579595E-1,-6.719517522E-3,1.351683439E-1
2.311465002E0,-8.674286306E-2,1.087340117E-1,-9.773843922E-3,1.394379346E-1
2.313328190E0,-8.674286306E-2,1.099557430E-1,-1.038470957E-2,1.404365761E-1
2.315520964E0,-8.735372871E-2,1.160643995E-1,-1.404990070E-2,1.459418324E-1
2.317425498E0,-8.491026610E-2,1.191187203E-1,-1.893682219E-2,1.475046645E-1
2.319623925E0,-8.552113175E-2,1.240056455E-1,-2.076941915E-2,1.520612800E-1
2.321564537E0,-8.552113175E-2,1.288925707E-1,-2.626720630E-2,1.568984541E-1
2.323726464E0,-8.552113175E-2,1.325577646E-1,-2.993239649E-2,1.605657912E-1
2.325824117E0,-8.979719132E-2,1.319468915E-1,-3.604105115E-2,1.636229664E-1
2.327787502E0,-8.735372871E-2,1.350012124E-1,-3.665191308E-2,1.649222968E-1
2.329668113E0,-8.979719132E-2,1.380555481E-1,-4.153883830E-2,1.698480056E-1
2.331902733E0,-8.857546002E-2,1.447750628E-1,-4.642575979E-2,1.759567620E-1
2.333777460E0,-8.918632567E-2,1.429424733E-1,-4.825835302E-2,1.752587230E-1
2.335957925E0,-9.101892263E-2,1.484402567E-1,-5.070181563E-2,1.813549784E-1
2.337991848E0,-9.101892263E-2,1.576032341E-1,-5.314527452E-2,1.895986389E-1
2.340060271E0,-9.040805697E-2,1.594358236E-1,-6.047565863E-2,1.930044142E-1
2.342094040E0,-8.979719132E-2,1.661553532E-1,-5.925392732E-2,1.979448531E-1
2.344162848E0,-8.613199741E-2,1.740965992E-1,-6.536258012E-2,2.049405126E-1
2.346304964E0,-8.124507964E-2,1.844813079E-1,-6.841690838E-2,2.128731765E-1
2.348204848E0,-7.819075137E-2,1.930334121E-1,-7.391469181E-2,2.209956413E-1
2.350086613E0,-7.452555746E-2,2.003637999E-1,-7.880161703E-2,2.278363577E-1
2.352321040E0,-7.330382615E-2,2.070833147E-1,-8.185594529E-2,2.344298315E-1
2.354190190E0,-6.597344577E-2,2.119702399E-1,-8.918632567E-2,2.392448094E-1
2.356376310E0,-6.475171447E-2,2.144137025E-1,-9.285151958E-2,2.424611825E-1
2.358392767E0,-5.314527452E-2,2.211332172E-1,-1.001819000E-1,2.485170679E-1
2.360479771E0,-4.459316283E-2,2.266310006E-1,-1.081231460E-1,2.550309301E-1
2.362429229E0,-3.604105115E-2,2.315179259E-1,-1.191187203E-1,2.628474403E-1
2.364583463E0,-2.871066704E-2,2.357939780E-1,-1.221730486E-1,2.671130028E-1
2.366681348E0,-1.893682219E-2,2.400700450E-1,-1.313360333E-1,2.743016285E-1
2.368640925E0,-1.038470957E-2,2.486221492E-1,-1.368338168E-1,2.839794160E-1
2.370516729E0,-4.886921961E-3,2.510656118E-1,-1.404990107E-1,2.877460607E-1
2.372757002E0,2.443460980E-3,2.614503205E-1,-1.447750628E-1,2.988679631E-1
2.374632690E0,9.162978269E-3,2.773328125E-1,-1.478293836E-1,3.144057502E-1
2.376812425E0,1.404990070E-2,2.895501256E-1,-1.533271819E-1,3.279419151E-1
2.378846810E0,1.282817032E-2,2.981022298E-1,-1.533271819E-1,3.354679211E-1
2.380915579E0,1.710422710E-2,3.109304011E-1,-1.527163088E-1,3.468321494E-1
2.382856575E0,1.527163107E-2,3.249803185E-1,-1.539380401E-1,3.599199221E-1
2.385017733E0,1.832595654E-2,3.396410644E-1,-1.563815027E-1,3.743622146E-1
2.387160425E0,1.343903504E-2,3.488040566E-1,-1.545489132E-1,3.817463087E-1
2.389071848E0,1.282817032E-2,3.634648323E-1,-1.545489132E-1,3.951665634E-1
2.390964036E0,5.497787148E-3,3.824016452E-1,-1.569923609E-1,4.134100208E-1
2.393186271E0,2.443460980E-3,3.903428912E-1,-1.563815027E-1,4.205100684E-1
2.395051844E0,-1.221730467E-2,3.836233616E-1,-1.502728462E-1,4.121869411E-1
2.397240925E0,-1.893682219E-2,3.805690408E-1,-1.429424733E-1,4.069692233E-1
2.399274886E0,-1.954768784E-2,3.946189582E-1,-1.466076523E-1,4.214261952E-1
2.401343425E0,-1.954768784E-2,4.098905921E-1,-1.496619880E-1,4.367964288E-1
2.403298613E0,-1.710422710E-2,4.404338300E-1,-1.545489132E-1,4.670758823E-1
2.405445809E0,-1.343903504E-2,4.673119187E-1,-1.576032341E-1,4.933556693E-1
2.407542579E0,-1.038470957E-2,4.893030524E-1,-1.594358236E-1,5.147281818E-1
2.409499656E0,-9.773843922E-3,4.978551865E-1,-1.612684280E-1,5.234145781E-1
2.411397306E0,-9.162978269E-3,5.186246037E-1,-1.624901593E-1,5.435609365E-1
2.413615925E0,-1.099557430E-2,5.369505286E-1,-1.679879427E-1,5.627225975E-1
2.415488575E0,-7.330383174E-3,5.406157374E-1,-1.692096740E-1,5.665253956E-1
2.417671925E0,-5.497787148E-3,5.528330207E-1,-1.722639948E-1,5.790763839E-1
2.419602229E0,-4.886921961E-3,5.644394755E-1,-1.716531366E-1,5.899835615E-1
2.421774732E0,-1.038470957E-2,5.662720799E-1,-1.789835095E-1,5.939755950E-1
2.423808925E0,-7.941247895E-3,5.687155724E-1,-1.783726513E-1,5.960849507E-1
2.425877040E0,-4.581489414E-2,5.112941861E-1,-1.734857261E-1,5.418653398E-1
2.428020386E0,-7.941248268E-2,4.233296216E-1,-1.496619880E-1,4.559748036E-1
2.429920848E0,-8.185594529E-2,4.068362415E-1,-1.459967941E-1,4.399217965E-1
2.431795690E0,-6.352998316E-2,4.190535545E-1,-1.466076523E-1,4.484815983E-1
2.434036655E0,-3.543018550E-2,4.544837475E-1,-1.557706445E-1,4.817419106E-1
2.436023771E0,-9.773843922E-3,4.948008358E-1,-1.631010175E-1,5.210809314E-1
2.438092386E0,4.276056774E-3,5.082398653E-1,-1.655444801E-1,5.345381373E-1
2.440032575E0,2.382374369E-2,5.290092826E-1,-1.728748679E-1,5.570494698E-1
2.442195617E0,3.909537569E-2,5.381723046E-1,-1.777617931E-1,5.681171824E-1
2.444218344E0,4.520402849E-2,5.424483418E-1,-1.808161139E-1,5.735748206E-1
2.446298732E0,4.764748737E-2,5.412266254E-1,-1.826487035E-1,5.731989986E-1
2.448395386E0,4.948008433E-2,5.332853794E-1,-1.826487035E-1,5.658640504E-1
2.450356386E0,5.009094998E-2,5.290092826E-1,-1.844813079E-1,5.624884686E-1
2.452246959E0,5.131268129E-2,5.259549618E-1,-1.857030392E-1,5.601314416E-1
2.454471963E0,5.009094998E-2,5.283984542E-1,-1.899790913E-1,5.637429244E-1
2.456386536E0,5.681046844E-2,5.357288122E-1,-1.936442852E-1,5.724778587E-1
2.458526925E0,5.131268129E-2,5.198463202E-1,-1.954768747E-1,5.577494029E-1
2.460432652E0,3.481931984E-2,4.886921942E-1,-1.899790913E-1,5.254754998E-1
2.462629155E0,-1.417207420E-1,1.832595766E-1,-1.240056455E-1,2.627665147E-1
2.464576921E0,-2.119702399E-1,-1.582140923E-1,-1.588249579E-2,2.649817640E-1
2.466731886E0,-2.541199327E-1,-3.268128932E-1,2.260201424E-2,4.146015658E-1
2.468874348E0,-3.188716471E-1,-6.102544069E-1,8.246681094E-2,6.934625754E-1
2.470774386E0,-3.451388776E-1,-7.996225953E-1,1.392772794E-1,8.819950682E-1
2.472657652E0,-3.384193480E-1,-9.199630618E-1,1.899790913E-1,9.984747094E-1
2.474889463E0,-3.237585723E-1,-9.590584636E-1,2.076941878E-1,1.033319711E0
2.476748075E0,-2.773328125E-1,-9.999864101E-1,2.284636050E-1,1.062582669E0
2.478945655E0,-2.076941878E-1,-9.816604257E-1,2.309070677E-1,1.029617473E0
2.480863652E0,-1.295034289E-1,-9.285151958E-1,2.138028294E-1,9.615733237E-1
2.483048732E0,-9.101892263E-2,-8.881980777E-1,2.046398520E-1,9.160009490E-1
2.485327690E0,-1.893682219E-2,-7.959573865E-1,1.814269722E-1,8.165920099E-1
2.487113963E0,4.520402849E-2,-6.908885837E-1,1.502728462E-1,7.084859685E-1
2.489176271E0,7.330382615E-2,-6.371324658E-1,1.362229437E-1,6.556431349E-1
2.491137617E0,1.203404516E-1,-5.161811113E-1,1.123992056E-1,5.418102485E-1
2.493030344E0,1.545489132E-1,-3.897320330E-1,8.979719132E-2,4.287656233E-1
2.495252732E0,1.734857261E-1,-2.767219543E-1,7.513642311E-2,3.351385076E-1
2.497239463E0,1.783726513E-1,-2.235766798E-1,6.658431143E-2,2.936610377E-1
2.499307078E0,1.808161139E-1,-1.325577646E-1,5.375614017E-2,2.305553093E-1
2.501216036E0,1.734857261E-1,-6.414084882E-2,4.581489414E-2,1.905527491E-1
2.503409540E0,1.661553532E-1,-4.031710699E-2,4.276056588E-2,1.762428339E-1
2.505443771E0,1.527163088E-1,6.108652451E-4,3.970624134E-2,1.577948977E-1
2.507512386E0,1.258382350E-1,2.076941915E-2,3.604105115E-2,1.325352313E-1
2.509655424E0,9.590584040E-2,2.748893574E-2,3.848451003E-2,1.069328262E-1
2.511554963E0,8.674286306E-2,2.260201424E-2,3.665191308E-2,9.684285246E-2
2.513439767E0,5.742133409E-2,1.099557430E-2,3.726277873E-2,6.932984164E-2
2.515671040E0,3.237585723E-2,-9.162978269E-3,3.909537569E-2,5.158104984E-2
2.517524229E0,1.771509275E-2,-1.832595654E-2,3.787364438E-2,4.565170460E-2
2.519726309E0,-6.108652335E-3,-3.848451003E-2,4.398229718E-2,5.876066381E-2
2.521630229E0,-3.115412779E-2,-6.230825558E-2,5.192354694E-2,8.688471165E-2
2.523828809E0,-5.192354694E-2,-8.674286306E-2,5.436700583E-2,1.147874137E-1
2.525768729E0,-6.230825558E-2,-9.651670605E-2,5.803219974E-2,1.287071461E-1
2.527931886E0,-7.880161703E-2,-1.160643995E-1,6.414084882E-2,1.542552695E-1
2.530028963E0,-9.162978828E-2,-1.350012124E-1,7.086037099E-2,1.778834945E-1
2.531988886E0,-1.007927656E-1,-1.472185254E-1,7.757988572E-2,1.945536288E-1
2.533894806E0,-1.020144969E-1,-1.478293836E-1,8.185594529E-2,1.973851059E-1
2.536103809E0,-1.032362282E-1,-1.533271819E-1,8.735372871E-2,2.044446562E-1
2.538011806E0,-9.590584040E-2,-1.569923609E-1,9.285151958E-2,2.060726481E-1
2.540158809E0,-9.468411654E-2,-1.582140923E-1,9.651670605E-2,2.081159664E-1
2.542088921E0,-8.491026610E-2,-1.514945775E-1,1.014036313E-1,2.011045916E-1
2.544261732E0,-7.147123665E-2,-1.478293836E-1,1.075122803E-1,1.962665401E-1
2.546218844E0,-5.864306539E-2,-1.417207420E-1,1.099557430E-1,1.887168335E-1
2.548364001E0,-5.375614017E-2,-1.356120855E-1,1.130100712E-1,1.845308552E-1
2.550506617E0,-3.848451003E-2,-1.233947799E-1,1.142318025E-1,1.724999534E-1
2.552406155E0,-2.321287990E-2,-1.154535338E-1,1.178969890E-1,1.666374996E-1
2.554274498E0,-1.404990070E-2,-1.093448773E-1,1.191187203E-1,1.623051799E-1
2.556522309E0,0.000000000E0,-1.026253626E-1,1.215621829E-1,1.590890611E-1
2.558371767E0,1.404990070E-2,-9.590584040E-2,1.295034289E-1,1.617605268E-1
2.560577963E0,2.138028294E-2,-1.007927656E-1,1.362229437E-1,1.708010201E-1
2.562484113E0,1.954768784E-2,-1.050688252E-1,1.386664063E-1,1.750712494E-1
2.564681540E0,2.626720630E-2,-1.233947799E-1,1.502728462E-1,1.962094955E-1
2.566655921E0,2.871066704E-2,-1.398881376E-1,1.600466967E-1,2.144946119E-1
2.568784847E0,3.115412779E-2,-1.563815027E-1,1.747074574E-1,2.365342465E-1
2.570882347E0,3.054326214E-2,-1.643227488E-1,1.802052408E-1,2.457819877E-1
2.572845540E0,3.237585723E-2,-1.783726513E-1,1.991420686E-1,2.693001344E-1
2.574737844E0,3.848451003E-2,-1.924225539E-1,2.089159191E-1,2.866240709E-1
2.576961540E0,3.848451003E-2,-1.936442852E-1,2.186897546E-1,2.946258228E-1
2.578831229E0,4.092797264E-2,-2.034181207E-1,2.266310006E-1,3.072712828E-1
2.581016963E0,4.214970022E-2,-2.083050460E-1,2.345722616E-1,3.165307810E-1
2.582952652E0,4.886921868E-2,-2.101376504E-1,2.419026345E-1,3.241341038E-1
2.585120424E0,4.886921868E-2,-2.083050460E-1,2.455678284E-1,3.257034711E-1
2.587089267E0,5.558873713E-2,-2.046398520E-1,2.547308207E-1,3.314443660E-1
2.589224386E0,5.803219974E-2,-1.960877478E-1,2.651155293E-1,3.348199291E-1
2.591367386E0,5.925392732E-2,-1.844813079E-1,2.730567753E-1,3.348199268E-1
2.593267809E0,5.681046844E-2,-1.802052408E-1,2.785545588E-1,3.365917414E-1
2.595176882E0,5.375614017E-2,-1.710422635E-1,2.889392674E-1,3.400457010E-1
2.597384039E0,4.825835302E-2,-1.557706445E-1,2.974913716E-1,3.392557716E-1
2.599348652E0,4.703662544E-2,-1.472185254E-1,3.011565804E-1,3.384981895E-1
2.601439309E0,3.726277873E-2,-1.343903542E-1,3.103195429E-1,3.402168436E-1
2.603358575E0,2.871066704E-2,-1.233947799E-1,3.152064681E-1,3.397141322E-1
2.605542770E0,1.771509275E-2,-1.117883399E-1,3.164281845E-1,3.360613834E-1
2.607519959E0,1.221730467E-2,-1.075122803E-1,3.158173263E-1,3.338393874E-1
2.609646155E0,3.665191587E-3,-9.957103431E-2,3.176499307E-1,3.329103528E-1
2.611743693E0,-3.054326167E-3,-8.796459436E-2,3.145956099E-1,3.266764401E-1
2.613704655E0,-5.497787148E-3,-7.880161703E-2,3.133738637E-1,3.231765755E-1
2.615585767E0,-1.038470957E-2,-6.841690838E-2,3.158173263E-1,3.233099119E-1
2.617821116E0,-1.404990070E-2,-5.192354694E-2,3.121521473E-1,3.167529282E-1
2.619720306E0,-1.099557430E-2,-3.543018550E-2,3.158173263E-1,3.179886543E-1
2.621876886E0,-1.099557430E-2,-2.504547499E-2,3.170390725E-1,3.182168317E-1
2.623797536E0,-3.054326167E-3,-1.832595654E-2,3.158173263E-1,3.163633247E-1
2.625980616E0,-1.221730490E-3,-1.282817032E-2,3.194825351E-1,3.197423100E-1
2.627928806E0,3.054326167E-3,-1.160643995E-2,3.200933933E-1,3.203183086E-1
2.630084462E0,4.886921961E-3,-1.466076635E-2,3.225368559E-1,3.229068651E-1
2.632227347E0,1.160643995E-2,-2.138028294E-2,3.286454976E-1,3.295446692E-1
2.634128039E0,1.771509275E-2,-3.054326214E-2,3.316998184E-1,3.335738072E-1
2.636056190E0,1.954768784E-2,-3.848451003E-2,3.329215646E-1,3.357081140E-1
2.638244424E0,2.504547499E-2,-4.337143153E-2,3.310889602E-1,3.348555755E-1
2.640231116E0,2.932153270E-2,-4.520402849E-2,3.268128932E-1,3.312247328E-1
2.642300116E0,3.359758854E-2,-4.398229718E-2,3.255911767E-1,3.302617974E-1
2.644223882E0,3.543018550E-2,-4.398229718E-2,3.237585723E-1,3.286477654E-1
2.646404039E0,4.153883830E-2,-4.764748737E-2,3.200933933E-1,3.262752497E-1
2.648363882E0,4.092797264E-2,-5.009094998E-2,3.170390725E-1,3.235706657E-1
2.650507270E0,4.581489414E-2,-5.436700583E-2,3.170390725E-1,3.249131412E-1
2.652604962E0,4.948008433E-2,-5.925392732E-2,3.182607889E-1,3.274892921E-1
2.654565770E0,5.253441259E-2,-6.230825558E-2,3.207042515E-1,3.308978697E-1
2.656426690E0,5.681046844E-2,-6.841690838E-2,3.170390725E-1,3.292750768E-1
2.658682924E0,5.619960278E-2,-7.147123665E-2,3.188716471E-1,3.315805488E-1
2.660563844E0,5.803219974E-2,-7.880161703E-2,3.188716471E-1,3.335514329E-1
2.662739424E0,5.864306539E-2,-8.368854225E-2,3.207042515E-1,3.365917381E-1
2.664774270E0,5.742133409E-2,-8.246681094E-2,3.243694305E-1,3.395784327E-1
2.666842693E0,5.497787148E-2,-8.674286306E-2,3.268128932E-1,3.425690555E-1
2.668799113E0,5.497787148E-2,-8.674286306E-2,3.286454976E-1,3.443178092E-1
2.670946155E0,5.436700583E-2,-8.979719132E-2,3.280346394E-1,3.444212994E-1
2.673089231E0,5.681046844E-2,-8.796459436E-2,3.280346394E-1,3.443427418E-1
2.674990001E0,5.131268129E-2,-8.918632567E-2,3.341432810E-1,3.496268356E-1
2.676912382E0,5.131268129E-2,-8.124507964E-2,3.408628106E-1,3.541485704E-1
2.679106847E0,4.642575979E-2,-7.513642311E-2,3.445279896E-1,3.556689035E-1
2.681037536E0,4.581489414E-2,-7.208210230E-2,3.500257730E-1,3.602955395E-1
2.683163116E0,3.970624134E-2,-6.658431143E-2,3.597996235E-1,3.680568233E-1
2.685192421E0,3.420845419E-2,-5.803219974E-2,3.695734739E-1,3.756627572E-1
2.687267308E0,3.298672289E-2,-5.436700583E-2,3.744603992E-1,3.798216499E-1
2.689207344E0,2.809980139E-2,-4.642575979E-2,3.842342496E-1,3.880475597E-1
2.691371654E0,2.626720630E-2,-3.543018550E-2,3.897320330E-1,3.922197365E-1
2.693469308E0,2.260201424E-2,-2.626720630E-2,3.958406746E-1,3.973545732E-1
2.695429347E0,2.138028294E-2,-2.076941915E-2,3.964515328E-1,3.975705009E-1
2.697301882E0,1.832595654E-2,-1.221730467E-2,3.976732790E-1,3.982827389E-1
2.699547001E0,1.710422710E-2,-3.054326167E-3,4.013384581E-1,4.017143779E-1
2.701453459E0,1.832595654E-2,3.665191587E-3,4.043927789E-1,4.048243989E-1
2.703603962E0,1.343903504E-2,6.108652335E-3,4.037819207E-1,4.040516833E-1
2.705523536E0,1.343903504E-2,3.665191587E-3,4.037819207E-1,4.040221290E-1
2.707710385E0,1.404990070E-2,-1.221730490E-3,3.970624208E-1,3.973127967E-1
2.709661998E0,1.221730467E-2,-1.832595794E-3,3.933972120E-1,3.935911424E-1
2.711814116E0,1.343903504E-2,-2.443460980E-3,3.836233616E-1,3.838664634E-1
2.713958001E0,1.343903504E-2,1.832595794E-3,3.756821156E-1,3.759268786E-1
2.715859231E0,1.893682219E-2,4.276056774E-3,3.646865487E-1,3.652029117E-1
2.717745036E0,1.771509275E-2,8.552113548E-3,3.567453027E-1,3.572872432E-1
2.719975693E0,2.382374369E-2,1.099557430E-2,3.408628106E-1,3.418712171E-1
2.721900075E0,2.809980139E-2,1.588249579E-2,3.249803185E-1,3.265793318E-1
2.724032731E0,3.237585723E-2,1.954768784E-2,3.158173263E-1,3.180737207E-1
2.725934229E0,3.543018550E-2,2.321287990E-2,2.962696552E-1,2.992822154E-1
2.728136001E0,3.909537569E-2,2.504547499E-2,2.816088796E-1,2.854107308E-1
2.730462385E0,4.276056588E-2,3.359758854E-2,2.645046413E-1,2.700369775E-1
2.732201193E0,4.031710699E-2,3.970624134E-2,2.541199327E-1,2.603439934E-1
2.734264116E0,9.162978269E-3,9.712757170E-2,2.150245607E-1,2.361213397E-1
2.736226154E0,-2.565634064E-2,1.704314053E-1,1.637118906E-1,2.377113688E-1
2.738226347E0,-3.848451003E-2,1.985312104E-1,1.398881376E-1,2.458950794E-1
2.740343116E0,-5.803219974E-2,2.302961946E-1,9.346238524E-2,2.552240014E-1
2.742223152E0,-6.597344577E-2,2.333505303E-1,4.581489414E-2,2.467872972E-1
2.744399924E0,-6.230825558E-2,2.138028294E-1,4.886921961E-3,2.227506466E-1
2.746316344E0,-6.169738993E-2,1.960877478E-1,-1.099557430E-2,2.058588726E-1
2.748503770E0,-5.009094998E-2,1.527163088E-1,-4.153883830E-2,1.660025582E-1
2.750538500E0,-3.909537569E-2,1.026253626E-1,-6.597344577E-2,1.281128760E-1
2.752607077E0,-2.504547499E-2,5.497787148E-2,-7.880161703E-2,9.929520137E-2
2.754750462E0,-1.832595654E-2,2.993239649E-2,-8.063421398E-2,8.794126169E-2
2.756650808E0,-7.941247895E-3,-1.099557430E-2,-7.941248268E-2,8.056245079E-2
2.758597728E0,3.665191587E-3,-4.214970022E-2,-6.963863969E-2,8.148356274E-2
2.760768077E0,9.162978269E-3,-5.803219974E-2,-6.169738993E-2,8.519544766E-2
2.762755693E0,1.832595654E-2,-7.391469181E-2,-4.337143153E-2,8.763734033E-2
2.764824308E0,2.565634064E-2,-7.635815442E-2,-2.565634064E-2,8.454030622E-2
2.766746844E0,3.115412779E-2,-7.208210230E-2,-1.466076635E-2,7.988333506E-2
2.768928808E0,3.604105115E-2,-6.963863969E-2,-1.099557430E-2,7.917954382E-2
2.770891267E0,3.848451003E-2,-5.742133409E-2,-7.941247895E-3,6.957967044E-2
2.773033423E0,4.398229718E-2,-4.398229718E-2,-8.552113548E-3,6.278553637E-2
2.775132000E0,4.153883830E-2,-3.665191308E-2,-1.404990070E-2,5.715100637E-2
2.777093308E0,4.214970022E-2,-3.298672289E-2,-1.343903504E-2,5.518449763E-2
2.779039152E0,3.787364438E-2,-2.565634064E-2,-1.771509275E-2,4.905594016E-2
2.781210846E0,3.604105115E-2,-1.954768784E-2,-2.015855350E-2,4.568847499E-2
2.783079421E0,3.298672289E-2,-1.588249579E-2,-1.832595654E-2,4.094164435E-2
2.785268000E0,2.565634064E-2,-1.466076635E-2,-2.076941915E-2,3.611861926E-2
2.787298998E0,1.954768784E-2,-1.160643995E-2,-2.138028294E-2,3.120798050E-2
2.789372039E0,1.649336144E-2,-1.038470957E-2,-2.076941915E-2,2.848230918E-2
2.791406808E0,1.038470957E-2,-8.552113548E-3,-2.076941915E-2,2.474569884E-2
2.793475731E0,6.108652335E-3,-3.665191587E-3,-1.832595654E-2,1.966189070E-2
2.795618693E0,2.443460980E-3,-3.665191587E-3,-1.710422710E-2,1.766235306E-2
2.797518962E0,2.443460980E-3,-1.832595794E-3,-1.466076635E-2,1.497554603E-2
2.799389228E0,-1.221730490E-3,4.886921961E-3,-9.773843922E-3,1.099557441E-2
2.801635577E0,-4.276056774E-3,6.108652335E-3,-7.941247895E-3,1.089328752E-2
2.803501421E0,6.108652451E-4,9.773843922E-3,-6.108652335E-3,1.154195888E-2
2.805691654E0,6.108652451E-4,1.221730467E-2,-5.497787148E-3,1.341123981E-2
2.807613921E0,1.221730490E-3,1.466076635E-2,-5.497787148E-3,1.570529716E-2
2.809795423E0,6.108652451E-4,1.893682219E-2,-2.443460980E-3,1.910358324E-2
2.811830346E0,6.108652451E-4,2.015855350E-2,-2.443460980E-3,2.031528826E-2
2.813899231E0,3.665191587E-3,2.199114859E-2,-6.108652451E-4,2.230285637E-2
2.815997192E0,7.330383174E-3,2.443460934E-2,-6.108652451E-4,2.551779394E-2
2.817962423E0,1.038470957E-2,2.382374369E-2,-3.054326167E-3,2.616757277E-2
2.819838998E0,7.941247895E-3,2.504547499E-2,-1.221730490E-3,2.630269684E-2
2.822078577E0,1.343903504E-2,2.138028294E-2,-3.665191587E-3,2.551779361E-2
2.824039152E0,1.221730467E-2,2.138028294E-2,-3.665191587E-3,2.489603706E-2
2.826134731E0,1.710422710E-2,1.771509275E-2,-4.276056774E-3,2.499327424E-2
2.828106036E0,1.771509275E-2,1.588249579E-2,-6.108652335E-3,2.456407574E-2
2.830237692E0,1.893682219E-2,1.160643995E-2,-7.941247895E-3,2.358762602E-2
2.832222767E0,2.076941915E-2,7.330383174E-3,-7.330383174E-3,2.321288019E-2
2.834341808E0,2.199114859E-2,3.665191587E-3,-7.330383174E-3,2.346867621E-2
2.836485192E0,2.260201424E-2,1.221730490E-3,-8.552113548E-3,2.419674192E-2
2.838384846E0,2.076941915E-2,-3.665191587E-3,-1.099557430E-2,2.378455497E-2
2.840258882E0,2.076941915E-2,-7.941247895E-3,-1.221730467E-2,2.537113957E-2
2.842500077E0,2.076941915E-2,-9.773843922E-3,-1.404990070E-2,2.691275732E-2
2.844384805E0,1.893682219E-2,-7.941247895E-3,-1.466076635E-2,2.523102699E-2
2.846555269E0,1.832595654E-2,-1.099557430E-2,-1.282817032E-2,2.492599629E-2
2.848455113E0,1.649336144E-2,-1.038470957E-2,-1.160643995E-2,2.268441344E-2
2.850658808E0,1.588249579E-2,-9.162978269E-3,-1.404990070E-2,2.310007690E-2
2.852599536E0,1.404990070E-2,-6.719517522E-3,-1.343903504E-2,2.057083586E-2
2.854761885E0,1.099557430E-2,-6.108652335E-3,-1.649336144E-2,2.074245065E-2
2.856858462E0,1.038470957E-2,-3.665191587E-3,-1.588249579E-2,1.932691116E-2
2.858817885E0,7.330383174E-3,-3.665191587E-3,-1.710422710E-2,1.896635788E-2
2.860696805E0,6.108652335E-3,-6.108652451E-4,-1.466076635E-2,1.589423982E-2
2.862933885E0,1.221730490E-3,6.108652451E-4,-1.771509275E-2,1.776767550E-2
2.864783382E0,3.665191587E-3,2.443460980E-3,-1.649336144E-2,1.707147043E-2
2.866989615E0,-1.832595794E-3,1.221730490E-3,-1.527163107E-2,1.542963863E-2
2.868961459E0,-6.108652451E-4,4.276056774E-3,-1.404990070E-2,1.469889545E-2
2.871092615E0,-1.832595794E-3,4.886921961E-3,-1.404990070E-2,1.498799930E-2
2.873054344E0,-3.054326167E-3,4.886921961E-3,-1.343903504E-2,1.462253663E-2
2.875195654E0,-3.665191587E-3,6.719517522E-3,-1.282817032E-2,1.493812234E-2
2.877338538E0,-4.276056774E-3,4.886921961E-3,-1.343903504E-2,1.492562664E-2
2.879238615E0,-4.886921961E-3,5.497787148E-3,-1.160643995E-2,1.374107412E-2
2.881091575E0,-3.054326167E-3,6.108652335E-3,-1.282817032E-2,1.453294518E-2
2.883355231E0,-7.941247895E-3,3.054326167E-3,-1.404990070E-2,1.642534736E-2
2.885180998E0,-4.886921961E-3,3.054326167E-3,-1.099557430E-2,1.241424862E-2
2.887411192E0,-8.552113548E-3,4.276056774E-3,-1.099557430E-2,1.457140905E-2
2.889445846E0,-7.330383174E-3,4.276056774E-3,-9.773843922E-3,1.294400263E-2
2.891515192E0,-7.330383174E-3,4.276056774E-3,-6.719517522E-3,1.082455979E-2
2.893463805E0,-8.552113548E-3,4.886921961E-3,-6.108652335E-3,1.159035313E-2
2.895619538E0,-7.941247895E-3,5.497787148E-3,-7.941247895E-3,1.250409932E-2
2.897717808E0,-8.552113548E-3,4.276056774E-3,-7.330383174E-3,1.204814613E-2
2.899679500E0,-1.038470957E-2,3.054326167E-3,-5.497787148E-3,1.214070693E-2
2.901557459E0,-1.160643995E-2,1.832595794E-3,-4.276056774E-3,1.250410001E-2
2.903796692E0,-1.038470957E-2,4.276056774E-3,-5.497787148E-3,1.250410005E-2
2.905661728E0,-9.162978269E-3,2.443460980E-3,-3.665191587E-3,1.016682358E-2
2.907853692E0,-1.099557430E-2,-6.108652451E-4,-4.276056774E-3,1.181357152E-2
2.909877267E0,-9.162978269E-3,6.108652451E-4,-3.054326167E-3,9.677925162E-3
2.911959077E0,-1.099557430E-2,1.221730490E-3,-1.832595794E-3,1.121399513E-2
2.913964036E0,-1.099557430E-2,-6.108652451E-4,-2.443460980E-3,1.128035070E-2
2.916063038E0,-9.773843922E-3,-1.221730490E-3,-2.443460980E-3,1.014845564E-2
2.918206307E0,-1.099557430E-2,-1.221730490E-3,-3.054326167E-3,1.147711583E-2
2.920107000E0,-1.160643995E-2,-3.054326167E-3,-4.276056774E-3,1.274060509E-2
2.922106807E0,-8.552113548E-3,6.108652451E-4,-4.886921961E-3,9.868830160E-3
2.924223615E0,-1.282817032E-2,6.108652451E-4,-3.054326167E-3,1.320090976E-2
2.926113113E0,-1.038470957E-2,-1.832595794E-3,-3.665191587E-3,1.116397016E-2
2.928280154E0,-1.038470957E-2,0.000000000E0,-1.832595794E-3,1.054516952E-2
2.930163305E0,-1.282817032E-2,-6.108652451E-4,-1.832595794E-3,1.297279914E-2
2.932384346E0,-1.099557430E-2,-4.276056774E-3,-4.276056774E-3,1.254878389E-2
2.934340805E0,-1.160643995E-2,-7.330383174E-3,-3.054326167E-3,1.406317440E-2
2.936488923E0,-9.162978269E-3,-8.552113548E-3,-3.665191587E-3,1.305880723E-2
2.938586769E0,-1.221730467E-2,-1.038470957E-2,-3.054326167E-3,1.632279494E-2
2.940547769E0,-1.038470957E-2,-1.343903504E-2,-4.886921961E-3,1.767291323E-2
2.942422690E0,-1.099557430E-2,-1.588249579E-2,-3.054326167E-3,1.955722974E-2
2.944664384E0,-1.038470957E-2,-1.466076635E-2,-3.054326167E-3,1.822386269E-2
2.946651423E0,-1.160643995E-2,-1.588249579E-2,-4.276056774E-3,2.013076706E-2
2.948720038E0,-1.221730467E-2,-1.649336144E-2,-3.665191587E-3,2.085011114E-2
2.950657075E0,-1.160643995E-2,-1.893682219E-2,-5.497787148E-3,2.288096035E-2
2.952824077E0,-9.162978269E-3,-1.771509275E-2,-4.886921961E-3,2.053452430E-2
2.954850959E0,-9.162978269E-3,-1.954768784E-2,-3.665191587E-3,2.189762316E-2
2.956927038E0,-1.466076635E-2,-2.260201424E-2,-4.276056774E-3,2.727771580E-2
2.959070269E0,-1.160643995E-2,-2.565634064E-2,-2.443460980E-3,2.826531028E-2
2.960970346E0,-1.282817032E-2,-2.687807009E-2,-3.054326167E-3,2.993862912E-2
2.962892498E0,-1.282817032E-2,-2.932153270E-2,-4.276056774E-3,3.228930001E-2
2.965086961E0,-1.527163107E-2,-3.054326214E-2,6.108652451E-4,3.415386851E-2
2.967057882E0,-1.404990070E-2,-2.993239649E-2,6.108652451E-4,3.307145635E-2
2.969142500E0,-1.404990070E-2,-3.481931984E-2,-3.054326167E-3,3.767112491E-2
2.971176961E0,-1.527163107E-2,-3.787364438E-2,-6.108652451E-4,4.084126358E-2
2.973246192E0,-1.527163107E-2,-3.970624134E-2,1.832595794E-3,4.258129547E-2
2.975513459E0,-1.710422710E-2,-4.214970022E-2,4.276056774E-3,4.568847202E-2
2.977309769E0,-1.771509275E-2,-4.337143153E-2,5.497787148E-3,4.717129686E-2
2.979372115E0,-1.954768784E-2,-4.703662544E-2,1.038470957E-2,5.198459797E-2
2.981333115E0,-1.954768784E-2,-4.703662544E-2,1.282817032E-2,5.252730896E-2
2.983215074E0,-2.076941915E-2,-4.581489414E-2,1.282817032E-2,5.191276578E-2
2.985449038E0,-2.199114859E-2,-4.764748737E-2,1.832595654E-2,5.558537894E-2
2.987332228E0,-2.382374369E-2,-5.253441259E-2,2.076941915E-2,6.130908612E-2
2.989504076E0,-2.199114859E-2,-5.681046844E-2,2.382374369E-2,6.541109006E-2
2.991409574E0,-2.565634064E-2,-6.475171447E-2,2.504547499E-2,7.401559403E-2
2.993606038E0,-2.504547499E-2,-6.658431143E-2,2.565634064E-2,7.562403164E-2
2.995560805E0,-2.626720630E-2,-6.597344577E-2,2.687807009E-2,7.592688803E-2
2.997708846E0,-2.809980139E-2,-7.024950534E-2,2.748893574E-2,8.049989706E-2
2.999851461E0,-3.237585723E-2,-6.963863969E-2,3.054326214E-2,8.264760814E-2
3.001751346E0,-2.993239649E-2,-6.658431143E-2,3.054326214E-2,7.913475690E-2
3.003693998E0,-3.237585723E-2,-6.597344577E-2,2.993239649E-2,7.935137074E-2
3.005866846E0,-3.237585723E-2,-6.475171447E-2,2.932153270E-2,7.810718877E-2
3.007735574E0,-2.993239649E-2,-6.475171447E-2,2.687807009E-2,7.623098804E-2
3.009922461E0,-3.298672289E-2,-6.414084882E-2,2.932153270E-2,7.785836277E-2
3.011927190E0,-3.237585723E-2,-6.169738993E-2,3.054326214E-2,7.607663845E-2
3.014025269E0,-3.176499158E-2,-6.475171447E-2,2.809980139E-2,7.740412169E-2
3.016059384E0,-3.115412779E-2,-6.475171447E-2,2.809980139E-2,7.715544727E-2
3.018128192E0,-3.115412779E-2,-6.597344577E-2,2.993239649E-2,7.886078610E-2
3.020226153E0,-3.115412779E-2,-6.780604273E-2,3.298672289E-2,8.158653686E-2
3.022185769E0,-3.054326214E-2,-6.841690838E-2,3.543018550E-2,8.287980610E-2
3.024041613E0,-3.054326214E-2,-7.024950534E-2,3.787364438E-2,8.545347741E-2
3.026301499E0,-3.115412779E-2,-6.719517708E-2,3.604105115E-2,8.236946563E-2
3.028259267E0,-2.871066704E-2,-7.330382615E-2,3.848451003E-2,8.762882427E-2
3.030356922E0,-2.871066704E-2,-6.780604273E-2,3.909537569E-2,8.336912038E-2
3.032391576E0,-2.809980139E-2,-6.902777404E-2,4.031710699E-2,8.473429968E-2
3.034460230E0,-2.993239649E-2,-7.086037099E-2,3.909537569E-2,8.628782612E-2
3.036452728E0,-2.748893574E-2,-7.086037099E-2,3.970624134E-2,8.575208083E-2
3.038563499E0,-2.809980139E-2,-7.391469181E-2,4.214970022E-2,8.960791110E-2
3.040706653E0,-2.687807009E-2,-7.330382615E-2,4.276056588E-2,8.901880461E-2
3.042606384E0,-2.626720630E-2,-7.574728876E-2,4.642575979E-2,9.264431474E-2
3.044519536E0,-2.809980139E-2,-7.208210230E-2,4.948008433E-2,9.183521686E-2
3.046722807E0,-2.871066704E-2,-7.452555746E-2,5.070181563E-2,9.459934051E-2
3.048705921E0,-2.565634064E-2,-7.330382615E-2,5.314527452E-2,9.410695483E-2
3.050778961E0,-2.504547499E-2,-7.391469181E-2,5.314527452E-2,9.441968908E-2
3.052745921E0,-2.504547499E-2,-7.330382615E-2,5.314527452E-2,9.394225327E-2
3.054882653E0,-2.748893574E-2,-7.208210230E-2,5.558873713E-2,9.508721657E-2
3.056836613E0,-2.504547499E-2,-7.147123665E-2,5.436700583E-2,9.322652416E-2
3.058986307E0,-2.504547499E-2,-6.963863969E-2,5.375614017E-2,9.146878463E-2
3.061084268E0,-2.260201424E-2,-6.841690838E-2,5.253441259E-2,8.917168220E-2
3.063049038E0,-1.954768784E-2,-6.841690838E-2,5.131268129E-2,8.772671608E-2
3.064912805E0,-1.649336144E-2,-6.414084882E-2,4.764748737E-2,8.158653388E-2
3.067165384E0,-1.832595654E-2,-5.742133409E-2,4.764748737E-2,7.683315264E-2
3.069051421E0,-1.527163107E-2,-5.619960278E-2,4.581489414E-2,7.409873544E-2
3.071221653E0,-1.527163107E-2,-5.497787148E-2,4.398229718E-2,7.204326154E-2
3.073125574E0,-1.221730467E-2,-5.253441259E-2,4.337143153E-2,6.921132937E-2
3.075325191E0,-7.941247895E-3,-5.131268129E-2,4.153883830E-2,6.649458449E-2
3.077268844E0,-1.038470957E-2,-4.886921868E-2,4.214970022E-2,6.536543395E-2
3.079429422E0,-6.719517522E-3,-5.009094998E-2,4.398229718E-2,6.699774363E-2
3.081572615E0,-9.773843922E-3,-4.703662544E-2,4.581489414E-2,6.638506371E-2
3.083473345E0,-4.276056774E-3,-4.642575979E-2,4.642575979E-2,6.579503785E-2
3.085374113E0,-6.719517522E-3,-4.520402849E-2,4.948008433E-2,6.735603056E-2
3.087590307E0,-4.886921961E-3,-4.337143153E-2,5.070181563E-2,6.690020320E-2
3.089575536E0,-3.054326167E-3,-4.092797264E-2,5.070181563E-2,6.523114258E-2
3.091647653E0,-1.221730490E-3,-3.909537569E-2,5.314527452E-2,6.598758390E-2
3.093681807E0,-5.497787148E-3,-3.543018550E-2,5.375614017E-2,6.461614592E-2
3.095750845E0,-4.276056774E-3,-3.298672289E-2,5.558873713E-2,6.478052365E-2
3.097750613E0,-6.108652335E-3,-3.359758854E-2,5.681046844E-2,6.628380581E-2
3.099854191E0,-3.054326167E-3,-3.298672289E-2,5.497787148E-2,6.418737530E-2
3.101951538E0,-3.665191587E-3,-3.298672289E-2,5.375614017E-2,6.317657891E-2
3.103911384E0,-3.054326167E-3,-3.115412779E-2,5.314527452E-2,6.167924116E-2
3.105798151E0,-4.886921961E-3,-3.054326214E-2,5.253441259E-2,6.096423029E-2
3.108026384E0,-4.886921961E-3,-2.993239649E-2,4.886921868E-2,5.751548400E-2
3.109880536E0,-4.886921961E-3,-2.993239649E-2,4.825835302E-2,5.699735961E-2
3.112081153E0,-4.276056774E-3,-3.054326214E-2,4.337143153E-2,5.321894960E-2
3.114023651E0,-7.941247895E-3,-3.176499158E-2,4.153883830E-2,5.289190104E-2
3.116184114E0,-5.497787148E-3,-3.543018550E-2,4.214970022E-2,5.533643408E-2
3.118188690E0,-4.886921961E-3,-4.276056588E-2,4.153883830E-2,5.981490690E-2
3.120288037E0,-5.497787148E-3,-5.253441259E-2,4.276056588E-2,6.795996001E-2
3.122430576E0,-3.054326167E-3,-5.436700583E-2,4.092797264E-2,6.811900745E-2
3.124331230E0,-2.443460980E-3,-6.291911751E-2,4.214970022E-2,7.577191484E-2
3.126242113E0,-4.886921961E-3,-6.780604273E-2,4.337143153E-2,8.063883996E-2
3.128446576E0,-4.276056774E-3,-6.780604273E-2,4.214970022E-2,7.995336967E-2
3.130433576E0,-4.276056774E-3,-7.147123665E-2,4.581489414E-2,8.500251087E-2
3.132502268E0,-7.941247895E-3,-6.719517708E-2,4.459316283E-2,8.103582795E-2
3.134426113E0,-8.552113548E-3,-6.291911751E-2,4.459316283E-2,7.759190786E-2
3.136606268E0,-9.162978269E-3,-5.864306539E-2,4.398229718E-2,7.387429698E-2
3.138640653E0,-8.552113548E-3,-5.253441259E-2,4.276056588E-2,6.827495256E-2
3.140709230E0,-7.330383174E-3,-4.642575979E-2,4.214970022E-2,6.313226528E-2
3.142806345E0,-8.552113548E-3,-3.787364438E-2,3.665191308E-2,5.339395394E-2
3.144767614E0,-7.941247895E-3,-3.543018550E-2,3.543018550E-2,5.073124783E-2
3.146719228E0,-8.552113548E-3,-2.748893574E-2,3.298672289E-2,4.378246362E-2
3.148882230E0,-6.108652335E-3,-2.260201424E-2,2.504547499E-2,3.428472690E-2
3.150762921E0,-4.276056774E-3,-2.260201424E-2,2.321287990E-2,3.267986387E-2
3.152937153E0,-4.276056774E-3,-1.954768784E-2,2.015855350E-2,2.840359204E-2
3.154871151E0,-2.443460980E-3,-1.527163107E-2,1.404990070E-2,2.089480621E-2
3.157040960E0,-1.832595794E-3,-1.466076635E-2,7.330383174E-3,1.649336214E-2
3.159021190E0,-2.443460980E-3,-1.099557430E-2,6.108652335E-3,1.281361733E-2
3.161143999E0,-2.443460980E-3,-9.773843922E-3,1.832595794E-3,1.023996748E-2
3.163286614E0,6.108652451E-4,-8.552113548E-3,-3.054326167E-3,9.101687251E-3
3.165186883E0,6.108652451E-4,-6.719517522E-3,-2.443460980E-3,7.176041641E-3
3.167079382E0,0.000000000E0,-5.497787148E-3,-9.162978269E-3,1.068577720E-2
3.169302999E0,0.000000000E0,-8.552113548E-3,-1.038470957E-2,1.345291192E-2
3.171159882E0,3.665191587E-3,-1.099557430E-2,-9.162978269E-3,1.477485886E-2
3.173359383E0,6.108652451E-4,-1.038470957E-2,-8.552113548E-3,1.346677376E-2
3.175393614E0,3.665191587E-3,-1.404990070E-2,-1.038470957E-2,1.785148542E-2
3.177462537E0,5.497787148E-3,-1.649336144E-2,-5.497787148E-3,1.823409715E-2
3.179462651E0,4.276056774E-3,-1.832595654E-2,-7.330383174E-3,2.019554065E-2
3.181565268E0,5.497787148E-3,-1.710422710E-2,-7.941247895E-3,1.964290371E-2
3.183662306E0,3.054326167E-3,-1.832595654E-2,-1.038470957E-2,2.128407349E-2
3.185622114E0,4.276056774E-3,-2.015855350E-2,-1.099557430E-2,2.335711015E-2
3.187514228E0,3.054326167E-3,-1.649336144E-2,-1.099557430E-2,2.005648359E-2
3.189737999E0,5.497787148E-3,-1.649336144E-2,-1.404990070E-2,2.235299409E-2
3.191598074E0,3.665191587E-3,-1.099557430E-2,-1.282817032E-2,1.728867367E-2
3.193793153E0,4.886921961E-3,-7.330383174E-3,-1.649336144E-2,1.869886348E-2
3.195706228E0,3.054326167E-3,-6.108652335E-3,-1.527163107E-2,1.672923361E-2
3.197895229E0,4.886921961E-3,6.108652451E-4,-1.710422710E-2,1.779915018E-2
3.199856690E0,7.330383174E-3,4.886921961E-3,-1.649336144E-2,1.869886348E-2
3.201996653E0,4.886921961E-3,6.108652335E-3,-1.649336144E-2,1.825455043E-2
3.204139422E0,9.162978269E-3,9.773843922E-3,-1.710422710E-2,2.172654552E-2
3.206039306E0,8.552113548E-3,1.649336144E-2,-1.527163107E-2,2.404978863E-2
3.208038460E0,8.552113548E-3,2.015855350E-2,-1.649336144E-2,2.741417328E-2
3.210154691E0,7.941247895E-3,2.382374369E-2,-1.527163107E-2,2.939144258E-2
3.212084420E0,1.038470957E-2,2.626720630E-2,-1.404990070E-2,3.154691790E-2
3.214209768E0,1.099557430E-2,3.176499158E-2,-1.588249579E-2,3.717756066E-2
3.216191113E0,1.099557430E-2,3.115412779E-2,-1.282817032E-2,3.544071509E-2
3.218312268E0,1.282817032E-2,3.604105115E-2,-1.282817032E-2,4.034948916E-2
3.220602920E0,1.466076635E-2,3.787364438E-2,-1.160643995E-2,4.223813984E-2
3.222376306E0,1.404990070E-2,4.398229718E-2,-1.099557430E-2,4.746308912E-2
