"Time (s)","Linear Acceleration x (m/s^2)","Linear Acceleration y (m/s^2)","Linear Acceleration z (m/s^2)","Absolute acceleration (m/s^2)"
1.235467200E-2,1.107873917E-1,1.943862438E-2,9.487724304E-2,1.471509345E-1
2.062663400E-2,1.052856445E-1,1.558160782E-2,3.053965569E-1,3.234113640E-1
2.883444100E-2,-1.549720764E-3,4.509997368E-2,3.960371017E-1,3.985997933E-1
3.704224900E-2,-4.689216614E-2,8.032906055E-2,3.642950058E-1,3.759820268E-1
4.527417200E-2,-3.240156174E-2,1.243687868E-1,2.376070023E-1,2.701380089E-1
5.348128700E-2,-1.241683960E-2,1.471225023E-1,1.007714272E-1,1.787570673E-1
6.169582600E-2,1.670837402E-3,1.468195915E-1,2.844142914E-2,1.495583466E-1
6.990448000E-2,7.208538055E-2,1.029055119E-1,2.556324005E-2,1.282159339E-1
7.811363300E-2,6.385421753E-2,7.892858982E-2,6.441068649E-2,1.202323580E-1
8.634617200E-2,9.418153763E-2,5.809044838E-2,9.512710571E-2,1.459240503E-1
9.455305600E-2,1.263337135E-1,3.431892395E-2,1.487879753E-1,1.981813748E-1
1.028008640E-1,1.491680145E-1,1.792073250E-3,1.656746864E-1,2.229403728E-1
1.110075180E-1,1.453461647E-1,1.797080040E-2,1.716814041E-1,2.256611659E-1
1.192150560E-1,1.433243752E-1,4.281544685E-2,1.518306732E-1,2.131374963E-1
1.274465180E-1,1.257553101E-1,5.316269398E-2,1.573648453E-1,2.083371416E-1
1.356529790E-1,1.219568253E-1,3.384006023E-2,1.564378738E-1,2.012248128E-1
1.438918640E-1,9.803056717E-2,3.173315525E-2,1.467814445E-1,1.793370506E-1
1.520977870E-1,7.878971100E-2,2.008390427E-2,9.653234482E-2,1.262128178E-1
1.603029790E-1,6.484508514E-2,7.687926292E-3,7.642269135E-2,1.005207294E-1
1.685335560E-1,5.459976196E-2,1.301062107E-2,7.226800919E-2,9.150451037E-2
1.767396330E-1,4.900693893E-2,3.301286697E-2,7.298564911E-2,9.390651961E-2
1.849770560E-1,6.246662140E-2,3.309392929E-2,8.636188507E-2,1.116049378E-1
1.931826710E-1,1.047344208E-1,3.639328480E-2,1.086401939E-1,1.552303508E-1
2.013887480E-1,1.013689041E-1,4.701197147E-2,7.358741760E-2,1.337942010E-1
2.096177100E-1,1.248421669E-1,4.361832142E-2,8.118772507E-2,1.551759366E-1
2.178253250E-1,1.003856659E-1,3.015196323E-2,6.480932236E-2,1.232342122E-1
2.260397480E-1,1.359620094E-1,4.020631313E-2,7.465839386E-2,1.602376092E-1
2.342466710E-1,1.406922340E-1,3.611004353E-2,1.033048630E-1,1.782417871E-1
2.424530560E-1,1.420469284E-1,2.102410793E-2,1.126127243E-1,1.824855300E-1
2.506842100E-1,1.467895508E-1,-5.356073380E-4,1.078767776E-1,1.821671163E-1
2.588915170E-1,1.669235229E-1,-2.374982834E-2,9.852266312E-2,1.952798812E-1
2.671624790E-1,1.596975327E-1,-1.905870438E-2,6.507253647E-2,1.734963145E-1
2.753673630E-1,1.469378471E-1,-2.766251564E-2,7.633256912E-2,1.678767608E-1
2.835727100E-1,1.062679291E-1,-4.461979866E-2,7.634019852E-2,1.382448013E-1
2.918020170E-1,7.101964951E-2,-1.963412762E-2,6.644153595E-2,9.921576126E-2
3.000090170E-1,9.005689621E-2,-1.003301144E-2,7.614374161E-2,1.183586721E-1
3.082460940E-1,1.019492149E-1,1.158785820E-2,9.776449203E-2,1.417244396E-1
3.164534400E-1,1.114597321E-1,1.413106918E-2,9.541368484E-2,1.473998991E-1
3.246619790E-1,1.185498238E-1,2.136218548E-2,1.026897430E-1,1.582895670E-1
3.328935170E-1,1.641831398E-1,2.358627319E-2,1.097469330E-1,1.988889262E-1
3.411005560E-1,1.598124504E-1,2.560615540E-2,1.117496490E-1,1.966816681E-1
3.493490550E-1,1.387510300E-1,2.506923676E-2,9.216356277E-2,1.684471349E-1
3.575547860E-1,1.008596420E-1,2.442038059E-2,9.183406830E-2,1.385731521E-1
3.657621320E-1,6.059455872E-2,1.190340519E-2,1.177949905E-1,1.330001932E-1
3.739928630E-1,5.383110046E-2,2.558362484E-2,1.031045914E-1,1.190918385E-1
3.821991710E-1,6.166601181E-2,5.141198635E-2,1.000838280E-1,1.283069054E-1
3.904113250E-1,6.948900223E-2,2.973842621E-2,9.699535370E-2,1.229682645E-1
3.986188630E-1,6.767559052E-2,1.749026775E-2,7.246065140E-2,1.006798938E-1
4.068250170E-1,6.587743759E-2,2.463233471E-2,8.616352081E-2,1.112238329E-1
4.150562480E-1,6.396722794E-2,1.261711121E-2,1.023883820E-1,1.213852483E-1
4.232641710E-1,8.799695969E-2,2.232432365E-2,1.357808113E-1,1.633348373E-1
4.315030550E-1,9.512996674E-2,4.639184475E-2,1.142621040E-1,1.557489719E-1
4.397106710E-1,9.498357773E-2,3.905367851E-2,1.072778702E-1,1.485113170E-1
4.479173630E-1,6.355571747E-2,5.105924606E-2,4.296827316E-2,9.215556592E-2
4.561498630E-1,4.141044617E-2,5.157732964E-2,2.437543869E-2,7.049260951E-2
4.643575930E-1,5.998134613E-2,5.979716778E-2,4.875135422E-2,9.772490827E-2
4.725952860E-1,5.696058273E-2,6.100010872E-2,7.793188095E-2,1.141879999E-1
4.808028630E-1,5.144023895E-2,3.622305393E-2,9.757661819E-2,1.161008365E-1
4.890096320E-1,3.862762451E-2,4.472625256E-2,1.437325478E-1,1.554077744E-1
4.972375930E-1,3.060150146E-2,2.700102329E-2,1.755042076E-1,1.801866644E-1
5.054432090E-1,2.278709412E-2,8.935451508E-3,1.496462822E-1,1.516347708E-1
5.137104390E-1,1.714658737E-2,2.462136745E-2,8.807802200E-2,9.304813353E-2
5.219157090E-1,5.454778671E-2,4.536008835E-2,6.003284454E-2,9.293514445E-2
5.301230550E-1,5.594396591E-2,2.789974213E-2,7.276821136E-2,9.593401648E-2
5.383553620E-1,6.426525116E-2,2.746629715E-2,1.024994850E-1,1.240587136E-1
5.465622850E-1,6.257247925E-2,1.494479179E-2,1.662683487E-1,1.782801889E-1
5.547740930E-1,3.648900986E-2,-1.434588432E-2,1.132297516E-1,1.198258273E-1
5.629790930E-1,9.117507935E-2,1.634204388E-2,1.231322289E-1,1.540827806E-1
5.711844390E-1,1.268095970E-1,3.015196323E-2,1.137924194E-1,1.730275397E-1
5.794121700E-1,1.199941635E-1,6.792032719E-2,8.217477798E-2,1.605131280E-1
5.876191310E-1,8.440971375E-2,6.985366344E-2,6.734609604E-2,1.286080508E-1
5.958665550E-1,8.950185776E-2,7.170641422E-2,1.076312065E-1,1.572795886E-1
6.040729780E-1,4.197931290E-2,5.203461647E-2,1.047506332E-1,1.242680940E-1
6.122791310E-1,5.893516541E-2,3.978312016E-2,1.163768768E-1,1.363804525E-1
6.205097080E-1,-1.348495483E-3,4.927778244E-2,1.095175743E-1,1.201008633E-1
6.287164770E-1,-5.588054657E-2,1.829290390E-2,6.593227386E-2,8.834212220E-2
6.369586700E-1,-2.077918053E-1,-1.882505417E-2,1.199674606E-2,2.089874133E-1
6.451661310E-1,-1.557970047E-1,1.003444195E-2,-1.837968826E-2,1.571979950E-1
6.533738240E-1,7.791137695E-2,4.219520092E-2,-5.546569824E-3,8.877714839E-2
6.616032470E-1,1.285285950E-1,7.922458649E-2,4.655265808E-2,1.579977367E-1
6.698104000E-1,8.640670776E-2,2.293610573E-2,3.328847885E-2,9.539552881E-2
6.780486310E-1,1.304001808E-1,-1.864564419E-2,3.442287445E-2,1.361499228E-1
6.862571700E-1,8.335876465E-2,-1.920914650E-2,6.909275055E-2,1.099612801E-1
6.944641700E-1,9.796476364E-2,-1.032829285E-2,1.188693047E-1,1.543816056E-1
7.026946700E-1,1.675648689E-1,1.272130013E-2,1.855492592E-1,2.503364623E-1
7.109019390E-1,2.470316887E-1,4.484283924E-2,1.706137657E-1,3.035532779E-1
7.191167460E-1,2.198772430E-1,1.385090351E-1,1.329956055E-1,2.919222258E-1
7.273252850E-1,2.042741776E-1,1.408721209E-1,1.051306725E-1,2.694909133E-1
7.355322460E-1,7.682847977E-2,9.536147118E-2,5.014038086E-2,1.323271827E-1
7.437633230E-1,-4.000663757E-4,4.535019398E-2,6.699562073E-2,8.090249281E-2
7.519714000E-1,-3.527307510E-2,5.351293087E-2,3.669261932E-2,7.385236564E-2
7.602427850E-1,1.391839981E-2,1.914179325E-2,1.076698303E-2,2.600111586E-2
7.684492460E-1,1.039609909E-1,-2.902233601E-2,1.329088211E-2,1.087512352E-1
7.766564380E-1,1.242499352E-1,3.558182716E-2,2.573204041E-2,1.317810711E-1
7.848877460E-1,5.105447769E-2,5.240082741E-2,-1.144409180E-5,7.316014309E-2
7.930962850E-1,1.402382851E-1,7.708275318E-2,2.490139008E-2,1.619524827E-1
8.013337850E-1,2.607722282E-1,8.016121387E-2,2.084541321E-2,2.736101359E-1
8.095402840E-1,3.247780800E-1,6.609821320E-2,9.718608856E-2,3.453909536E-1
8.177465920E-1,3.007817268E-1,1.373291016E-3,2.112321854E-1,3.675466899E-1
8.259768610E-1,2.050199509E-1,-8.324134350E-2,2.774724960E-1,3.548989822E-1
8.341841310E-1,1.016702652E-1,-1.162322760E-1,3.108749390E-1,3.471167130E-1
8.424333230E-1,1.204199791E-1,-6.667494774E-2,4.785971642E-1,4.979977566E-1
8.506398230E-1,5.897855759E-2,-2.110874653E-2,2.908592224E-1,2.975283797E-1
8.588461300E-1,5.376195908E-2,-3.337049484E-2,1.090092659E-1,1.260434775E-1
8.670802070E-1,1.251707077E-1,-2.628922462E-2,-4.415702820E-2,1.353095434E-1
8.752871300E-1,1.073565483E-1,-3.812897205E-2,-1.008472443E-1,1.521493137E-1
8.835006690E-1,1.226434708E-1,-1.829695702E-2,-7.813882828E-2,1.465669678E-1
8.917079760E-1,1.569256783E-1,-2.948284149E-3,6.680727005E-2,1.705801050E-1
8.999154760E-1,1.265158653E-1,7.641196251E-3,1.758937836E-1,2.168023873E-1
9.081472070E-1,1.343393326E-1,1.289808750E-2,1.295475960E-1,1.870721694E-1
9.163545530E-1,1.592698097E-1,2.487039566E-2,1.642823219E-1,2.301610092E-1
9.245944760E-1,1.146054268E-1,1.733911037E-2,2.088518143E-1,2.388600614E-1
9.328030920E-1,7.240629196E-2,-1.198983192E-2,1.671934128E-1,1.825926189E-1
9.410125530E-1,2.303171158E-2,-2.477514744E-2,1.471152306E-1,1.509541610E-1
9.492456300E-1,4.099082947E-2,3.664815426E-2,1.123232841E-1,1.250594078E-1
9.574529760E-1,4.773473740E-2,6.911599636E-2,8.626174927E-2,1.204023068E-1
9.656937840E-1,7.368564606E-2,3.707027435E-2,1.940870285E-2,8.473769776E-2
9.739017070E-1,6.367063522E-2,3.400909901E-2,-2.827215195E-2,7.752343633E-2
9.821090150E-1,-1.130104065E-2,3.388583660E-2,-5.173921585E-2,6.287217110E-2
9.903407450E-1,-7.968330383E-2,1.072514057E-2,-4.354572296E-2,9.143679532E-2
9.985484380E-1,-1.484613419E-1,3.869485855E-2,4.157924652E-2,1.589556411E-1
1.006819630E0,-1.706147194E-1,1.726865768E-2,1.311683655E-2,1.719873263E-1
1.015026822E0,-1.957225800E-1,2.327120304E-2,9.070873260E-3,1.973098019E-1
1.023233591E0,-3.571023941E-1,-1.048886776E-2,3.096818924E-2,3.585961028E-1
1.031467514E0,-4.451198578E-1,3.393507004E-2,-1.450538635E-3,4.464139120E-1
1.039677937E0,-4.352831841E-1,9.911966324E-2,-2.658843994E-2,4.472170649E-1
1.047893553E0,-2.050371170E-1,1.436222792E-1,1.980495453E-2,2.511171333E-1
1.056104130E0,-1.679039001E-1,1.528455019E-1,3.161907196E-2,2.292449189E-1
1.064312245E0,-2.833175659E-2,1.653776169E-1,1.757764816E-2,1.687051224E-1
1.072543591E0,2.463102341E-2,8.765006065E-2,1.112222672E-2,9.172199504E-2
1.080751976E0,2.279396057E-1,4.917705059E-2,8.174467087E-2,2.470972225E-1
1.089002630E0,3.545393944E-1,8.807182312E-4,1.022763252E-1,3.689978381E-1
1.097211514E0,4.092884064E-1,-2.856242657E-2,1.037735939E-1,4.232041713E-1
1.105421822E0,5.146408081E-1,-5.604654551E-2,1.145606041E-1,5.302079862E-1
1.113655899E0,5.680012703E-1,-9.421885014E-2,9.840536118E-2,5.841115047E-1
1.121864899E0,6.390690804E-1,-1.193374395E-1,1.220459938E-1,6.614725531E-1
1.130105552E0,6.171388626E-1,-8.656841516E-2,1.479516029E-1,6.405030391E-1
1.138315129E0,5.596528053E-1,-9.150063992E-2,1.737174988E-1,5.930947639E-1
1.146524091E0,4.856090546E-1,-7.402092218E-2,1.994833946E-1,5.301781545E-1
1.154756975E0,3.470115662E-1,-4.352891445E-2,1.774702072E-1,3.921829521E-1
1.162966514E0,2.112603188E-1,-7.080197334E-3,1.622838974E-1,2.664903654E-1
1.171208283E0,1.071090698E-1,1.927787066E-2,8.435726166E-2,1.376958123E-1
1.179418091E0,1.045322418E-2,-9.291589260E-3,3.236675262E-2,3.525918607E-2
1.187626629E0,3.362560272E-2,-4.239857197E-2,3.526544571E-2,6.459080217E-2
1.195859245E0,3.033590317E-2,-6.540477276E-2,3.345012665E-2,7.947931991E-2
1.204070437E0,-3.499031067E-2,-7.622265816E-2,5.050182343E-2,9.790122383E-2
1.212288244E0,-1.185464859E-2,-8.176380396E-2,6.763172150E-2,1.067703240E-1
1.220498437E0,7.561588287E-2,-7.500922680E-2,8.269548416E-2,1.348432013E-1
1.228708898E0,1.627960205E-1,-8.510315418E-2,1.244630814E-1,2.218922030E-1
1.236943821E0,1.755862236E-1,-8.806937933E-2,1.448960304E-1,2.440934189E-1
1.245154898E0,2.530512810E-1,-7.231646776E-2,1.725425720E-1,3.146991603E-1
1.253426167E0,2.874469757E-1,-7.616305351E-2,1.643104553E-1,3.397418142E-1
1.261635629E0,3.099274635E-1,-4.705369473E-2,1.441268921E-1,3.450241207E-1
1.269845014E0,3.561544418E-1,-6.397795677E-2,1.051054001E-1,3.768107091E-1
1.278076821E0,3.163723946E-1,-2.914690971E-2,8.754491806E-2,3.295529503E-1
1.286285629E0,2.147593498E-1,-9.188055992E-3,8.391857147E-2,2.307559866E-1
1.294525898E0,1.062240601E-1,-1.820230484E-2,4.888916016E-2,1.183428275E-1
1.302737167E0,4.092454910E-2,2.310454845E-2,2.325868607E-2,5.243667949E-2
1.310946244E0,2.375125885E-2,2.653670311E-2,1.163864136E-2,3.746701058E-2
1.319178667E0,6.410598755E-2,4.705119133E-2,-3.841590881E-2,8.831293391E-2
1.327387398E0,8.287477493E-2,4.622048140E-2,-3.099107742E-2,9.982488718E-2
1.335637513E0,6.110334396E-2,6.735521555E-2,2.514839172E-3,9.097619536E-2
1.343844629E0,5.379343033E-2,5.774807930E-2,3.584718704E-2,8.668099347E-2
1.352053975E0,-3.866672516E-3,6.753098965E-2,7.402276993E-2,1.002734072E-1
1.360287513E0,4.351568222E-2,4.921919107E-2,8.853530884E-2,1.102481033E-1
1.368498090E0,5.200004578E-2,6.459462643E-2,2.951955795E-2,8.802201330E-2
1.376713321E0,6.114578247E-2,4.897403717E-2,2.714824677E-2,8.291134020E-2
1.384921628E0,8.753061295E-2,6.700462103E-2,7.206344604E-2,1.316980171E-1
1.393131590E0,1.139340401E-1,5.375850201E-2,4.994153976E-2,1.355178934E-1
1.401364667E0,9.713125229E-2,2.639776468E-2,4.467916489E-2,1.101251557E-1
1.409572898E0,7.765817642E-2,2.566152811E-2,6.844711304E-2,1.066504274E-1
1.417811398E0,1.028327942E-1,1.335471869E-2,7.163143158E-2,1.260317185E-1
1.426018474E0,6.347131729E-2,5.847394466E-3,8.426475525E-2,1.056567514E-1
1.434223397E0,6.029224396E-2,-8.697986603E-3,1.540179253E-1,1.656270840E-1
1.442454974E0,2.624893188E-2,7.798433304E-3,1.540365219E-1,1.564515007E-1
1.450663128E0,8.936405182E-3,1.209962368E-2,1.349720955E-1,1.358076831E-1
1.458903244E0,-1.779222488E-2,3.080880642E-2,7.979536057E-2,8.736730159E-2
1.467111359E0,-6.264686584E-3,9.005904198E-3,7.972431183E-2,8.047557707E-2
1.475318859E0,6.490278244E-2,-1.462328434E-2,3.914260864E-2,7.719038428E-2
1.483550782E0,4.475545883E-2,-4.587769508E-3,1.331424713E-2,4.691873721E-2
1.491758090E0,2.720832825E-2,-6.153285503E-3,6.141567230E-2,6.745399064E-2
1.500030090E0,2.850627899E-2,2.058506012E-3,8.592700958E-2,9.055548777E-2
1.508239397E0,2.989912033E-2,-2.780348063E-2,1.031165123E-1,1.109053923E-1
1.516447628E0,1.192550659E-1,-2.355051041E-2,1.185970306E-1,1.698283044E-1
1.524679974E0,1.695384979E-1,-2.640378475E-2,1.326117516E-1,2.168555712E-1
1.532888628E0,1.743922234E-1,-3.438436985E-2,1.753349304E-1,2.496743284E-1
1.541103166E0,1.679787636E-1,-2.629417181E-2,1.622281075E-1,2.350025688E-1
1.549313782E0,1.473102570E-1,-1.637774706E-2,1.227288246E-1,1.924341622E-1
1.557523512E0,1.385097504E-1,5.864500999E-4,7.140588760E-2,1.558335511E-1
1.565756743E0,8.177661896E-2,-2.307695150E-2,9.435701370E-2,1.269771914E-1
1.573964820E0,1.014637947E-1,-3.931289911E-2,4.808998108E-2,1.189666002E-1
1.582215243E0,1.139960289E-1,-7.926630974E-2,5.443668365E-2,1.491361626E-1
1.590425166E0,1.433043480E-1,-9.286868572E-2,5.358695984E-2,1.789756721E-1
1.598635089E0,1.320185661E-1,-1.064978838E-1,5.261421204E-2,1.775921067E-1
1.606867166E0,1.375703812E-1,-7.971447706E-2,4.919338226E-2,1.664331592E-1
1.615075858E0,1.192955971E-1,-7.245790958E-2,7.440853119E-2,1.581714818E-1
1.623315858E0,1.108517647E-1,-5.810612440E-2,8.975219727E-2,1.540126369E-1
1.631523628E0,1.407604218E-1,-6.298750639E-2,5.477666855E-2,1.636502542E-1
1.639730743E0,1.110501289E-1,-7.274389267E-2,4.586267471E-2,1.404535154E-1
1.647961474E0,9.114980698E-2,-2.986788750E-2,4.146003723E-2,1.044955152E-1
1.656168627E0,1.167473793E-1,-2.993774414E-2,2.745771408E-2,1.236128843E-1
1.664408127E0,1.109337807E-1,1.532107592E-2,1.855373383E-3,1.120021494E-1
1.672616243E0,1.167783737E-1,4.383593798E-2,-5.448722839E-2,1.361162594E-1
1.680824935E0,1.777696609E-2,-3.074306250E-2,-3.001594543E-2,4.649853111E-2
1.689057704E0,5.562877655E-2,-8.314460516E-2,1.064462662E-1,1.460766707E-1
1.697267320E0,1.307373047E-1,-6.063759327E-2,1.004681587E-1,1.756787166E-1
1.705483550E0,1.547565460E-1,-1.375102997E-2,9.065532684E-2,1.798807039E-1
1.713695358E0,2.204332352E-1,-1.240628958E-2,1.874222755E-1,2.896063476E-1
1.721906243E0,2.531623840E-1,-9.475827217E-3,1.830267906E-1,3.125376619E-1
1.730140550E0,2.143964767E-1,-4.211068153E-4,1.208815575E-1,2.461267509E-1
1.738350204E0,1.517610550E-1,2.472120523E-2,4.435777664E-2,1.600317723E-1
1.746624012E0,1.276998520E-1,4.770076275E-2,-1.392364502E-3,1.363251761E-1
1.754836396E0,7.989883423E-2,4.243129492E-2,-1.948833466E-3,9.048776962E-2
1.763047165E0,2.964353561E-2,4.232501984E-2,1.908349991E-2,5.508472090E-2
1.771281127E0,4.613542557E-2,1.893055439E-2,-1.945018768E-2,5.352712567E-2
1.779492050E0,6.740379333E-2,-1.739203930E-3,-3.405618668E-2,7.553886442E-2
1.787733819E0,7.427120209E-2,-2.713483572E-2,8.840560913E-3,7.956548426E-2
1.795943704E0,2.119731903E-2,-1.376658678E-2,7.095766068E-2,7.532486213E-2
1.804155127E0,-7.243156433E-4,-3.073722124E-2,1.114206314E-1,1.155848541E-1
1.812388935E0,3.021049500E-2,-5.480891466E-2,1.181387901E-1,1.336916784E-1
1.820599704E0,3.504467010E-2,-4.301810265E-2,1.030344963E-1,1.170247559E-1
1.828851434E0,4.251146317E-2,-3.588044643E-2,4.693126678E-2,7.278169233E-2
1.837062473E0,8.575487137E-2,-2.876555920E-2,4.607105255E-2,1.015081142E-1
1.845273550E0,1.000771523E-1,-6.931197643E-2,3.585577011E-2,1.269063542E-1
1.853508242E0,1.113891602E-1,-5.239021778E-2,4.795122147E-2,1.321045024E-1
1.861719396E0,1.345176697E-1,-8.333063126E-2,8.897304535E-2,1.815356724E-1
1.869936280E0,1.528706551E-1,-6.879997253E-2,1.419601440E-1,2.196714726E-1
1.878145588E0,1.783366203E-1,-9.066268802E-2,1.519885063E-1,2.512452571E-1
1.886355703E0,2.156181335E-1,-5.516642332E-2,1.765899658E-1,2.841100664E-1
1.894592934E0,2.120599747E-1,-7.818713784E-2,1.392111778E-1,2.654475719E-1
1.902803473E0,2.041349411E-1,-6.606742740E-2,1.253299713E-1,2.484825564E-1
1.911047126E0,9.108018875E-2,-9.836453199E-2,6.341600418E-2,1.482996006E-1
1.919258703E0,2.892351151E-2,-8.242124319E-2,1.347918510E-1,1.606196562E-1
1.927467396E0,1.208305359E-2,-4.434466362E-2,9.859275818E-2,1.087795079E-1
1.935700088E0,-6.729793549E-2,-1.013904810E-2,4.352235794E-2,8.078371159E-2
1.943909972E0,-4.246711731E-3,-1.804727316E-2,1.234083176E-1,1.247932349E-1
1.952151203E0,5.185317993E-2,-5.238923430E-2,1.527471542E-1,1.696027042E-1
1.960362665E0,5.469751358E-2,-2.042362094E-2,4.400157928E-2,7.311006267E-2
1.968572857E0,1.852178574E-2,-2.924159169E-2,-4.002094269E-3,3.484456902E-2
1.976806395E0,3.283643723E-2,-4.446560144E-2,5.541610718E-2,7.827110742E-2
1.985015857E0,1.553497314E-1,-2.287906408E-2,9.026765823E-2,1.811221708E-1
1.993290126E0,1.891016960E-1,-6.386473775E-2,8.227109909E-2,2.158858261E-1
2.001498549E0,2.127871513E-1,-6.641557813E-2,9.402608871E-2,2.419303746E-1
2.009707665E0,2.627267838E-1,-1.171687245E-2,9.153985977E-2,2.784639904E-1
2.017938434E0,2.929687500E-1,-1.987564564E-2,6.822443008E-2,3.014636008E-1
2.026147241E0,2.198123932E-1,-6.178528070E-2,6.463432312E-2,2.373025597E-1
2.034361164E0,2.188344002E-1,-3.663975000E-2,7.498121262E-2,2.342074897E-1
2.042568511E0,1.941161156E-1,-8.146190643E-2,4.921197891E-2,2.161918763E-1
2.050777357E0,1.912350655E-1,-1.119882762E-1,7.816600800E-2,2.349939341E-1
2.059010972E0,2.100300789E-1,-9.725975990E-2,6.867456436E-2,2.414296807E-1
2.067219395E0,2.165646553E-1,-7.590731978E-2,2.366733551E-2,2.306996183E-1
2.075470703E0,1.894531250E-1,-1.052146852E-1,2.433490753E-2,2.180706406E-1
2.083678972E0,2.320132256E-1,-8.664733171E-2,4.865407944E-2,2.523987250E-1
2.091886587E0,2.221918106E-1,-4.964211583E-2,6.308984756E-2,2.362495910E-1
2.100119049E0,1.761288643E-1,-6.078517437E-2,7.555294037E-2,2.010583524E-1
2.108327780E0,2.169189453E-1,-3.136441112E-2,1.805891991E-1,2.839894610E-1
2.116568164E0,2.480230331E-1,-1.225069165E-2,1.493372917E-1,2.897708252E-1
2.124776703E0,1.877217293E-1,-1.537498832E-2,7.795333862E-2,2.038444527E-1
2.132985318E0,1.801414490E-1,-2.834522724E-2,7.356357574E-2,1.966367037E-1
2.141218626E0,1.513276100E-1,1.356893778E-2,1.142902374E-1,1.901221186E-1
2.149427702E0,8.171701431E-2,4.567673802E-2,5.938053131E-2,1.108606437E-1
2.157668241E0,6.737327576E-2,-1.763531566E-2,5.448102951E-2,8.842140703E-2
2.165877395E0,9.421682358E-2,-1.884192228E-2,7.772493362E-2,1.235839520E-1
2.174086972E0,9.452390671E-2,5.179592967E-2,5.093669891E-2,1.192146575E-1
2.182318356E0,1.062288284E-1,-1.174494624E-2,2.964782715E-2,1.109121337E-1
2.190526856E0,1.159272194E-1,-3.637978435E-2,7.966995239E-2,1.452924988E-1
2.198743548E0,1.594438553E-1,2.044481039E-2,8.622598648E-2,1.824150597E-1
2.206953856E0,1.353263855E-1,2.432969213E-2,4.804086685E-2,1.456471401E-1
2.215163087E0,1.255116463E-1,1.423648000E-2,8.652591705E-2,1.531097157E-1
2.223398741E0,1.448702812E-1,2.551510930E-2,1.220827103E-1,1.911612077E-1
2.231607471E0,1.282792091E-1,5.344736576E-2,9.304904938E-2,1.672432420E-1
2.239877433E0,7.540178299E-2,3.808820248E-2,9.081935883E-2,1.240334470E-1
2.248086741E0,6.836938858E-2,1.820653677E-2,1.048994064E-1,1.265295884E-1
2.256296856E0,2.576255798E-2,1.761543751E-2,1.065864563E-1,1.110616302E-1
2.264532125E0,9.456634521E-3,2.938434482E-2,1.154756546E-1,1.195303077E-1
2.272743240E0,3.626585007E-2,2.714681625E-2,1.099543571E-1,1.189206549E-1
2.280985433E0,1.153135300E-1,3.186142445E-2,1.049799919E-1,1.591639383E-1
2.289195279E0,9.582471848E-2,2.681130171E-2,5.977678299E-2,1.160796552E-1
2.297405087E0,4.951143265E-2,2.789050341E-3,7.262182236E-2,8.793798865E-2
2.305638779E0,5.120611191E-2,-1.614302397E-2,1.164236069E-1,1.282073296E-1
2.313848971E0,9.411239624E-2,-2.030527592E-2,1.356348991E-1,1.663318166E-1
2.322101740E0,9.399700165E-2,-2.449071407E-2,1.332120895E-1,1.648656792E-1
2.330312471E0,1.365294456E-1,-5.270925164E-2,1.074023247E-1,1.815318542E-1
2.338520663E0,1.405596733E-1,-6.433701515E-2,1.393032074E-1,2.080905016E-1
2.346752894E0,1.803946495E-1,-8.094722033E-2,1.114931107E-1,2.269920610E-1
2.354962009E0,1.796035767E-1,-3.344765306E-2,6.207513809E-2,1.929495090E-1
2.363178625E0,1.814842224E-1,-2.191257477E-2,6.738567352E-2,1.948268793E-1
2.371388779E0,9.450674057E-2,-4.656240344E-2,3.234624863E-2,1.102082630E-1
2.379600048E0,9.107351303E-2,-8.778482676E-2,8.619356155E-2,1.530682548E-1
2.387833817E0,6.657934189E-2,-1.074074954E-1,1.059203148E-1,1.648887259E-1
2.396043278E0,7.343006134E-2,-9.317803383E-2,1.301474571E-1,1.761036073E-1
2.404283817E0,6.591224670E-2,-6.478780508E-2,1.376333237E-1,1.657854509E-1
2.412492163E0,8.437919617E-2,-7.976034284E-2,1.000738144E-1,1.532851244E-1
2.420699817E0,1.242532730E-1,-7.834243774E-2,5.073833466E-2,1.554052509E-1
2.428933201E0,1.135902405E-1,-6.281358004E-2,4.129409790E-3,1.298666262E-1
2.437142778E0,1.316518784E-1,-5.871930718E-2,3.171873093E-2,1.476016667E-1
2.445382855E0,1.333656311E-1,-5.179712176E-2,8.272171021E-2,1.652640757E-1
2.453592471E0,1.755604744E-1,-6.647723913E-2,8.372354507E-2,2.055488640E-1
2.461803201E0,2.055540085E-1,-2.131327987E-2,8.261394501E-2,2.225573414E-1
2.470037470E0,2.162199020E-1,-5.572670698E-2,6.978082657E-2,2.339356229E-1
2.478246970E0,1.956858635E-1,-9.503901005E-3,3.074359894E-2,1.983140191E-1
2.486518855E0,1.340813637E-1,-3.039354086E-2,-1.022911072E-2,1.378630267E-1
2.494729278E0,1.331086159E-1,-2.945816517E-2,6.035423279E-2,1.490916514E-1
2.502938855E0,1.495728493E-1,-1.881867647E-2,6.545352936E-2,1.643482410E-1
2.511171278E0,1.326899529E-1,-2.760142088E-2,6.556558609E-2,1.505566608E-1
2.519379970E0,1.515574455E-1,-2.460867167E-2,5.870676041E-2,1.643828754E-1
2.527595970E0,1.390695572E-1,-2.652677894E-2,4.495477676E-2,1.485427336E-1
2.535806201E0,1.335825920E-1,-1.943111420E-5,-1.165342331E-2,1.340899383E-1
2.544017162E0,7.557249069E-2,-4.973694682E-2,5.124521255E-2,1.039761369E-1
2.552251009E0,1.545534134E-1,-3.215280175E-2,1.230640411E-1,2.001632296E-1
2.560461932E0,1.187763214E-1,-3.369316459E-2,1.635560989E-1,2.049235013E-1
2.568714085E0,1.139912605E-1,-2.593231201E-2,1.371874809E-1,1.802412195E-1
2.576924970E0,1.137475967E-1,-1.126021147E-2,1.302900314E-1,1.733228214E-1
2.585137085E0,9.918689728E-2,3.285020590E-3,8.981990814E-2,1.338523360E-1
2.593373855E0,1.037263870E-1,1.298308372E-2,7.096815109E-2,1.263495243E-1
2.601586124E0,8.921384811E-2,1.333057880E-2,6.395101547E-2,1.105737193E-1
2.609828585E0,8.907079697E-2,-6.372630596E-4,9.044265747E-2,1.269404871E-1
2.618037970E0,1.104159355E-1,-3.826585412E-2,9.066057205E-2,1.479029876E-1
2.626248624E0,1.175403595E-1,-7.823415101E-2,1.050615311E-1,1.759950107E-1
2.634499316E0,9.803247452E-2,-6.570348144E-2,9.828853607E-2,1.535836901E-1
2.642709124E0,1.120557785E-1,-4.363542795E-2,1.082615852E-1,1.618058062E-1
2.650951893E0,9.726667404E-2,-3.131574392E-2,9.440279007E-2,1.391163846E-1
2.659162547E0,5.835247040E-2,1.917979121E-2,5.683565140E-2,8.368492375E-2
2.667372085E0,7.919645309E-2,4.992842674E-3,7.206106186E-2,1.071905000E-1
2.675607085E0,6.206512451E-2,-1.860380173E-3,5.574464798E-2,8.344463118E-2
2.683816739E0,8.108615875E-2,1.297375560E-2,6.306791306E-2,1.035415141E-1
2.692032200E0,1.000089645E-1,-3.274619579E-3,5.854177475E-2,1.159295282E-1
2.700241662E0,1.236844063E-1,-2.678629756E-2,5.406141281E-2,1.376153133E-1
2.708452316E0,1.377935410E-1,-5.517023802E-2,4.717683792E-2,1.557448848E-1
2.716686277E0,1.760001183E-1,-7.651011646E-2,3.771448135E-2,1.955817518E-1
2.724896354E0,1.807160378E-1,-7.396467030E-2,5.216169357E-2,2.021135845E-1
2.733169700E0,1.874356270E-1,-3.096461296E-2,-2.148103714E-2,1.911867058E-1
2.741380277E0,1.148152351E-1,-4.788506031E-2,-1.091384888E-2,1.248784582E-1
2.749591239E0,1.844811440E-1,-5.681332946E-2,9.889888763E-2,2.168917630E-1
2.757826316E0,1.851186752E-1,-3.025922179E-2,1.100707054E-1,2.174858722E-1
2.766035354E0,1.595902443E-1,8.141368628E-3,9.949064255E-2,1.882384549E-1
2.774276123E0,1.409788132E-1,2.227598429E-2,6.052398682E-2,1.550303139E-1
2.782485969E0,1.533260345E-1,3.375613689E-2,5.768775940E-2,1.672609555E-1
2.790694662E0,1.181311607E-1,6.220132113E-2,1.371908188E-2,1.342094955E-1
2.798929892E0,5.463027954E-2,7.397738099E-2,4.823160172E-2,1.038431882E-1
2.807138854E0,2.002048492E-2,4.767870903E-2,8.492660522E-2,9.943142052E-2
2.815390623E0,1.394796371E-2,2.873143554E-2,1.194577217E-1,1.236535012E-1
2.823600969E0,3.046035767E-3,7.894396782E-3,1.228923798E-1,1.231833464E-1
2.831810238E0,3.286552429E-2,8.492082357E-3,1.406741142E-1,1.447116601E-1
2.840042969E0,1.012706757E-2,2.093464136E-3,1.583056450E-1,1.586430500E-1
2.848251892E0,-7.944679260E-2,-4.226654768E-3,1.732892990E-1,1.906799376E-1
2.856466238E0,5.587816238E-2,-2.697232366E-2,2.123937607E-1,2.212712924E-1
2.864675123E0,1.261510849E-1,-2.353197336E-2,2.280664444E-1,2.616909495E-1
2.872885007E0,1.097383499E-1,8.108049631E-3,2.324042320E-1,2.571380426E-1
2.881120007E0,2.137327194E-2,2.503594756E-2,1.818461418E-1,1.848016091E-1
2.889330661E0,7.106781006E-3,2.531021833E-2,1.769232750E-1,1.788657561E-1
2.897573623E0,-1.523923874E-2,2.101707458E-2,1.563334465E-1,1.584742828E-1
2.905782776E0,-1.863956451E-2,1.918223500E-2,1.455750465E-1,1.480117755E-1
2.913991353E0,-2.221012115E-2,-1.998454332E-3,1.158819199E-1,1.180080618E-1
2.922226507E0,-2.348327637E-2,-6.057113409E-3,1.365704536E-1,1.387070355E-1
2.930434392E0,1.815319061E-2,-2.210280299E-2,1.479144096E-1,1.506543886E-1
2.938675123E0,6.686258316E-2,-6.812453270E-3,1.354408264E-1,1.511993122E-1
2.946885276E0,1.032934189E-1,-2.047419548E-2,1.161761284E-1,1.567980098E-1
2.955096738E0,1.491351128E-1,4.046082497E-3,9.472990036E-2,1.767240976E-1
2.963329969E0,1.517324448E-1,1.405161619E-2,6.868743896E-2,1.671470819E-1
2.971538469E0,1.543588638E-1,1.669117808E-2,4.261922836E-2,1.610020276E-1
2.979811469E0,1.424846649E-1,5.004405975E-3,2.869224548E-2,1.454309760E-1
2.988019622E0,1.354675293E-1,4.870295525E-4,3.623008728E-2,1.402294830E-1
2.996229007E0,1.382002831E-1,-2.118816972E-2,2.871036530E-3,1.398445552E-1
3.004459507E0,1.293072701E-1,-9.205192327E-3,-1.655578613E-2,1.306874122E-1
3.012667391E0,1.421113014E-1,-4.517975450E-2,-2.489089966E-4,1.491204016E-1
3.020880468E0,1.381869316E-1,-6.915363669E-2,2.080583572E-2,1.559190057E-1
3.029088699E0,1.751918793E-1,-7.877746224E-2,2.482175827E-2,1.936858353E-1
3.037297199E0,1.978135109E-1,-1.001470089E-1,4.081869125E-2,2.254457230E-1
3.045529853E0,1.965684891E-1,-9.773090482E-2,1.363515854E-2,2.199463985E-1
3.053737776E0,1.882534027E-1,-9.034939110E-2,3.418827057E-2,2.115920460E-1
3.061989122E0,1.799616814E-1,-7.816854119E-2,2.598381042E-2,1.979183822E-1
3.070197276E0,1.523871422E-1,-8.014789224E-2,2.032327652E-2,1.733740503E-1
3.078404930E0,1.654233932E-1,-8.457534015E-2,3.153610229E-2,1.884473745E-1
3.086638237E0,1.641254425E-1,-7.930952311E-2,5.707359314E-2,1.910093096E-1
3.094850007E0,1.604080200E-1,-6.208761036E-2,1.800107956E-2,1.729440462E-1
3.103092314E0,1.520996094E-1,-4.724952579E-2,3.614139557E-2,1.633187354E-1
3.111300930E0,1.629595757E-1,-4.950915277E-2,2.315711975E-2,1.718814466E-1
3.119508814E0,1.523799896E-1,-2.049639821E-2,1.721286774E-2,1.547127868E-1
3.127741353E0,1.564002037E-1,-2.980127931E-2,2.534294128E-2,1.612184997E-1
3.135948929E0,1.700568199E-1,-4.131022096E-2,1.423311234E-2,1.755802889E-1
3.144190737E0,1.598672867E-1,-2.648469806E-2,4.849576950E-2,1.691473566E-1
3.152399891E0,1.545901299E-1,-2.360180020E-2,5.626630783E-2,1.661958201E-1
3.160607776E0,1.351013184E-1,-1.844808459E-2,6.624460220E-2,1.515950044E-1
3.168838160E0,9.436988831E-2,7.975369692E-3,7.106733322E-2,1.184054399E-1
3.177045583E0,7.076644897E-2,-2.757540345E-2,8.738660812E-2,1.157787219E-1
3.185258429E0,7.115316391E-2,-1.222103834E-3,9.647893906E-2,1.198851615E-1
3.193467545E0,6.446456909E-2,1.568961143E-2,1.006431580E-1,1.205441405E-1
3.201675929E0,5.786371231E-2,3.876835108E-3,9.991121292E-2,1.155226797E-1
3.209908237E0,7.519721985E-2,1.875162125E-2,1.039595604E-1,1.296681741E-1
3.218115429E0,7.566595078E-2,1.425561309E-2,1.033601761E-1,1.288871003E-1
3.226387506E0,1.047148705E-1,-2.246767282E-3,1.053438187E-1,1.485515809E-1
3.234593468E0,1.074938774E-1,-1.403713226E-2,1.144332886E-1,1.576291607E-1
3.242800660E0,1.149778366E-1,-6.858050823E-3,1.188449860E-1,1.655024666E-1
3.251033314E0,1.106195450E-1,1.457592845E-2,1.135249138E-1,1.591761523E-1
3.259241660E0,1.134743690E-1,4.757702351E-3,9.380912781E-2,1.473065532E-1
3.267481544E0,9.727048874E-2,9.205490351E-3,6.679487228E-2,1.183547380E-1
3.275689583E0,8.834838867E-2,1.585838199E-2,5.403327942E-2,1.047688949E-1
3.283898390E0,9.858655930E-2,1.521936059E-2,5.323600769E-2,1.130708235E-1
3.292132083E0,9.938287735E-2,3.363981843E-2,5.706691742E-2,1.194371247E-1
3.300340852E0,9.801578522E-2,4.105389118E-3,6.300687790E-2,1.165925171E-1
3.308591929E0,1.133232117E-1,1.789674163E-2,4.510068893E-2,1.232741490E-1
3.316801698E0,1.287417412E-1,3.179404140E-2,4.859828949E-2,1.412341698E-1
3.325010467E0,1.201987267E-1,2.609115839E-2,4.735326767E-2,1.317983854E-1
3.333242352E0,6.610679626E-2,4.720452428E-2,6.770992279E-2,1.057497483E-1
3.341449775E0,4.079818726E-2,5.890649557E-2,8.559656143E-2,1.116299182E-1
3.349664352E0,-1.085376740E-2,5.426174402E-2,1.034755707E-1,1.173428091E-1
3.357873390E0,-7.476806641E-3,4.028320312E-2,1.094174385E-1,1.168367020E-1
3.366083121E0,2.948760986E-3,2.162671089E-2,1.035528183E-1,1.058281437E-1
3.374316121E0,6.000518799E-3,2.230069041E-2,1.242499352E-1,1.263778992E-1
3.382524621E0,4.477882385E-2,-7.871896029E-3,1.499567032E-1,1.566975515E-1
3.390768890E0,5.940532684E-2,4.879295826E-3,1.543850899E-1,1.654918619E-1
3.398978698E0,3.806781769E-2,-1.328384876E-2,1.852011681E-1,1.895391570E-1
3.407191121E0,3.554391861E-2,-4.813671112E-4,1.757469177E-1,1.793058308E-1
3.415426390E0,4.975128174E-2,-9.380698204E-3,1.807022095E-1,1.876605341E-1
3.423674313E0,4.704236984E-2,-8.747667074E-3,1.379680634E-1,1.460297666E-1
3.431916274E0,2.264451981E-2,-2.523061633E-2,1.169738770E-1,1.217877094E-1
3.440128236E0,2.210569382E-2,-2.241146564E-2,1.343817711E-1,1.380195489E-1
3.448339659E0,2.632713318E-2,-2.409502864E-2,1.230831146E-1,1.281528051E-1
3.456573659E0,4.476451874E-2,-4.009762406E-2,1.119689941E-1,1.270776819E-1
3.464783774E0,7.731008530E-2,-8.314102888E-3,9.160137177E-2,1.201531727E-1
3.473056467E0,6.658601761E-2,-3.866669536E-2,9.778118134E-2,1.244587100E-1
3.481263428E0,7.258129120E-2,-3.321531415E-2,7.049942017E-2,1.064963341E-1
3.489471236E0,9.512472153E-2,8.217066526E-3,7.220602036E-2,1.197077366E-1
3.497703313E0,1.129670143E-1,8.876681328E-3,8.578109741E-2,1.421222659E-1
3.505911505E0,1.018471718E-1,1.896598935E-2,7.570838928E-2,1.283133483E-1
3.514125620E0,1.121687889E-1,1.241159439E-2,5.619049072E-2,1.260684581E-1
3.522332928E0,1.320066452E-1,-3.698408604E-3,5.350494385E-2,1.424858295E-1
3.530540389E0,1.062049866E-1,4.212796688E-3,2.466869354E-2,1.091136622E-1
3.538773736E0,9.726333618E-2,2.269446850E-4,1.725196838E-2,9.878177201E-2
3.546981466E0,9.552478790E-2,-1.807767153E-2,5.290508270E-2,1.106830388E-1
3.555230851E0,1.011581421E-1,-2.442657948E-2,6.917142868E-2,1.249572489E-1
3.563438543E0,1.067471504E-1,-2.858135104E-2,8.550167084E-2,1.397225231E-1
3.571647043E0,1.365132332E-1,-3.991524875E-2,7.520484924E-2,1.608877225E-1
3.579879735E0,1.206903458E-1,-4.414410889E-2,7.221603394E-2,1.474110493E-1
3.588088697E0,1.098651886E-1,-6.028276682E-2,6.178188324E-2,1.397189062E-1
3.596330197E0,1.109552383E-1,-4.061301053E-2,7.775735855E-2,1.414450011E-1
3.604542235E0,1.336789131E-1,-4.027853906E-2,6.011581421E-2,1.520076434E-1
3.612754658E0,1.442651749E-1,-2.553278208E-2,6.423234940E-2,1.599692419E-1
3.620989620E0,1.428575516E-1,-3.940977156E-2,6.597614288E-2,1.622167117E-1
3.629201120E0,1.703014374E-1,-4.130844772E-2,6.038618088E-2,1.853522546E-1
3.637444812E0,1.689329147E-1,-2.902252972E-2,5.012178421E-2,1.785856382E-1
3.645655081E0,1.605138779E-1,-3.344474733E-2,5.165910721E-2,1.719067173E-1
3.653864312E0,1.595201492E-1,-2.127659321E-2,4.092884064E-2,1.660558383E-1
3.662098004E0,1.704344749E-1,3.426969051E-4,4.225397110E-2,1.755944924E-1
3.670307927E0,1.957931519E-1,-6.837606430E-3,3.151321411E-2,1.984308289E-1
3.678523350E0,2.043480873E-1,1.719295979E-2,2.082157135E-2,2.061244199E-1
3.686732197E0,2.034268379E-1,1.719254255E-2,2.829551697E-3,2.041716637E-1
3.694941043E0,1.666216850E-1,2.441254258E-2,-3.232955933E-3,1.684316186E-1
3.703174966E0,1.588163376E-1,4.218816757E-4,1.670646667E-2,1.596931843E-1
3.711387427E0,1.368517876E-1,2.198532224E-2,2.920246124E-2,1.416493907E-1
3.719663658E0,1.268520355E-1,1.462343335E-2,2.734851837E-2,1.305879978E-1
3.727873966E0,9.788417816E-2,2.392461896E-2,-1.070976257E-3,1.007712594E-1
3.736084696E0,1.147637367E-1,4.893183708E-3,2.750396729E-2,1.181148878E-1
3.744318004E0,1.632051468E-1,1.447364688E-2,7.708168030E-2,1.810717864E-1
3.752528350E0,1.422104836E-1,7.430285215E-3,7.877016068E-2,1.627383452E-1
3.760770389E0,1.260271072E-1,-2.320975065E-3,1.067829132E-1,1.651993016E-1
3.768977196E0,1.124520302E-1,1.432371140E-2,1.153717041E-1,1.617444216E-1
3.777184658E0,6.294536591E-2,1.434868574E-2,1.096086502E-1,1.272087264E-1
3.785416542E0,8.998966217E-2,1.191914082E-2,1.135096550E-1,1.453432042E-1
3.793624004E0,7.636356354E-2,1.913532615E-2,1.006059647E-1,1.277462902E-1
3.801874812E0,7.683372498E-2,2.642521262E-2,7.846212387E-2,1.129513968E-1
3.810084196E0,6.771755219E-2,-6.704628468E-3,1.113862991E-1,1.305278765E-1
3.818293965E0,5.851173401E-2,-1.354366541E-2,1.085109711E-1,1.240229202E-1
3.826527735E0,5.179166794E-2,-1.551583409E-2,1.150937080E-1,1.271600551E-1
3.834736927E0,6.191492081E-2,8.645385504E-3,1.215791702E-1,1.367102584E-1
3.842950658E0,5.990076065E-2,-3.174811602E-3,1.474304199E-1,1.591662944E-1
3.851158542E0,6.757879257E-2,1.833570004E-2,1.228675842E-1,1.414197099E-1
3.859366465E0,7.021999359E-2,3.752201796E-3,8.186578751E-2,1.079209603E-1
3.867600927E0,3.205013275E-2,-5.851805210E-3,7.211780548E-2,7.913553248E-2
3.875810465E0,7.783317566E-2,4.113137722E-3,8.370494843E-2,1.143741209E-1
3.884051811E0,6.861019135E-2,9.187519550E-3,1.071887016E-1,1.275977532E-1
3.892262003E0,8.309650421E-2,-2.422711253E-2,1.237912178E-1,1.510504803E-1
3.900471773E0,1.141901016E-1,2.364301682E-2,1.262245178E-1,1.718458625E-1
3.908706350E0,1.357069016E-1,1.847219467E-2,9.754991531E-2,1.681474683E-1
3.916915965E0,9.942007065E-2,2.977439761E-2,3.579950333E-2,1.097837403E-1
3.925157119E0,4.644489288E-2,-1.357743144E-2,7.689189911E-2,9.085064044E-2
3.933365503E0,9.939146042E-2,-1.595321298E-2,1.004900932E-1,1.422372182E-1
3.941574311E0,1.092810631E-1,-6.301164627E-3,1.000924110E-1,1.483258109E-1
3.949806619E0,1.189498901E-1,-1.336348057E-2,9.757804871E-2,1.544316501E-1
3.958017080E0,1.140375137E-1,-6.256163120E-3,7.379484177E-2,1.359756331E-1
3.966291311E0,1.042809486E-1,1.031768322E-2,1.656675339E-2,1.060916027E-1
3.974499965E0,8.268737793E-2,-2.113661170E-2,5.255270004E-2,1.002284645E-1
3.982708426E0,8.518600464E-2,-2.118453383E-2,8.594226837E-2,1.228475207E-1
3.990939426E0,6.354045868E-2,-5.467984080E-2,8.845806122E-2,1.218692064E-1
3.999147118E0,7.072448730E-2,-2.123451233E-2,9.085369110E-2,1.170779689E-1
4.007362465E0,1.091384888E-1,-3.799800575E-2,1.242399216E-1,1.696779782E-1
4.015571388E0,9.483623505E-2,-4.748159647E-2,1.265501976E-1,1.651162197E-1
4.023781465E0,1.234302521E-1,-6.393207610E-2,7.882404327E-2,1.597985209E-1
4.032015080E0,1.207594872E-1,-6.621463597E-2,5.761957169E-2,1.492891382E-1
4.040224849E0,1.109609604E-1,-3.731282055E-2,8.422613144E-2,1.442172754E-1
4.048475811E0,1.154356003E-1,-4.446357489E-2,9.180068970E-2,1.540446492E-1
4.056685426E0,1.221785545E-1,-3.000788391E-2,9.235000610E-2,1.560659986E-1
4.064895926E0,1.074113846E-1,-4.215015471E-2,9.286212921E-2,1.481121741E-1
4.073127811E0,8.785009384E-2,-1.813742518E-2,7.182455063E-2,1.149146259E-1
4.081335387E0,1.041584015E-1,-6.385773420E-3,6.282424927E-2,1.218057347E-1
4.089574195E0,1.060566902E-1,5.307018757E-3,4.909420013E-2,1.169890015E-1
4.097782041E0,7.192277908E-2,1.455342770E-2,2.833461761E-2,7.866091128E-2
4.105990695E0,1.048755646E-1,-3.837282956E-2,6.018257141E-2,1.268593709E-1
4.114224426E0,1.071405411E-1,-7.344812155E-3,9.865617752E-2,1.458289518E-1
4.122434349E0,1.118068695E-1,-1.003435254E-2,1.036100388E-1,1.527629027E-1
4.130676772E0,1.379041672E-1,-2.227920294E-2,1.135001183E-1,1.799894415E-1
4.138885156E0,1.421999931E-1,-3.567039967E-3,7.104396820E-2,1.589993938E-1
4.147094656E0,1.465392113E-1,3.131717443E-3,5.726480484E-2,1.573620220E-1
4.155327618E0,1.199636459E-1,9.878426790E-3,5.040311813E-2,1.304964903E-1
4.163535772E0,1.198391914E-1,1.666370034E-2,5.057668686E-2,1.311377595E-1
4.171752079E0,8.856964111E-2,-9.936451912E-3,7.710695267E-2,1.178507384E-1
4.179960887E0,9.583234787E-2,6.238162518E-3,8.900308609E-2,1.309362551E-1
4.188169887E0,1.102514267E-1,-3.677368164E-3,9.373950958E-2,1.447618589E-1
4.196403387E0,1.008019447E-1,2.461466193E-2,1.031737328E-1,1.463274847E-1
4.204612079E0,1.080245972E-1,1.229614019E-2,7.919931412E-2,1.345103714E-1
4.212887118E0,1.273026466E-1,-1.176205277E-2,7.665109634E-2,1.490627395E-1
4.221096656E0,1.128740311E-1,-1.196151972E-2,8.871078491E-2,1.440598077E-1
4.229306810E0,1.223545074E-1,-2.879309654E-2,9.601974487E-2,1.581754068E-1
4.237540079E0,1.078968048E-1,4.480063915E-3,9.614658356E-2,1.445889242E-1
4.245750002E0,7.692432404E-2,-2.764046192E-3,8.159112930E-2,1.121699780E-1
4.253993002E0,9.620809555E-2,-1.736396551E-2,7.425546646E-2,1.227655458E-1
4.262203271E0,1.128096581E-1,-7.924795151E-3,5.051803589E-2,1.238583597E-1
4.270412541E0,1.343221664E-1,-1.536110044E-2,7.691144943E-2,1.555434951E-1
4.278647464E0,1.415028572E-1,-1.444637775E-3,9.848022461E-2,1.724050470E-1
4.286857579E0,1.533389091E-1,-6.763339043E-3,7.951974869E-2,1.728639761E-1
4.295107502E0,1.676793098E-1,-3.264546394E-4,6.521987915E-2,1.799168979E-1
4.303315463E0,8.369016647E-2,2.742373943E-2,4.156303406E-2,9.738373195E-2
4.311526733E0,9.798288345E-2,-9.176403284E-3,6.323623657E-2,1.169772347E-1
4.319761925E0,7.188796997E-2,6.897509098E-3,6.296205521E-2,9.581062704E-2
4.327972502E0,8.923101425E-2,-8.229047060E-3,5.986738205E-2,1.077682446E-1
4.336187733E0,7.783603668E-2,5.758851767E-3,6.634283066E-2,1.024352681E-1
4.344398117E0,8.070373535E-2,-4.748217762E-2,6.098222733E-2,1.117429288E-1
4.352609386E0,1.026825905E-1,-5.991131067E-2,6.525135040E-2,1.356127511E-1
4.360843694E0,1.080617905E-1,-2.168956399E-2,1.147885323E-1,1.591357750E-1
4.369054002E0,1.108193398E-1,-4.559159279E-4,1.143455505E-1,1.592357964E-1
4.377299117E0,1.037983894E-1,2.313348651E-2,1.261305809E-1,1.649793541E-1
4.385507848E0,8.232116699E-2,1.319456100E-2,1.212687492E-1,1.471631085E-1
4.393717771E0,9.678936005E-2,2.244418859E-2,9.003067017E-2,1.340799888E-1
4.401951117E0,8.728027344E-2,-1.621666551E-2,6.602096558E-2,1.106326998E-1
4.410161386E0,8.968114853E-2,-1.174375415E-2,6.602525711E-2,1.119819572E-1
4.418404040E0,8.968400955E-2,-1.194396615E-2,7.560920715E-2,1.179094233E-1
4.426614809E0,8.490085602E-2,-2.414706349E-2,7.082414627E-2,1.131693232E-1
4.434826617E0,9.215211868E-2,-2.198269963E-2,7.553672791E-2,1.211653801E-1
4.443062424E0,9.213066101E-2,-2.479353547E-2,7.318830490E-2,1.202468547E-1
4.451274809E0,1.114397049E-1,-2.037248015E-2,7.061576843E-2,1.334931928E-1
4.459551309E0,9.723043442E-2,7.983684540E-3,6.804275513E-2,1.189424782E-1
4.467763578E0,8.541679382E-2,2.718031406E-3,5.110692978E-2,9.957577332E-2
4.475974001E0,9.290122986E-2,-7.168710232E-3,6.750154495E-2,1.150586263E-1
4.484208732E0,9.068965912E-2,7.093012333E-3,8.164262772E-2,1.222311080E-1
4.492420194E0,7.657718658E-2,9.086251259E-3,7.655572891E-2,1.086618843E-1
4.500636540E0,5.284976959E-2,2.007097006E-3,1.002211571E-1,1.133199317E-1
4.508846924E0,6.484460831E-2,1.370120049E-2,1.049919128E-1,1.241605730E-1
4.517056540E0,6.011390686E-2,3.935426474E-3,1.025347710E-1,1.189224480E-1
4.525291040E0,7.708883286E-2,-1.282864809E-2,1.046586037E-1,1.306165598E-1
4.533502078E0,8.683681488E-2,-9.979307652E-4,8.529758453E-2,1.217263579E-1
4.541755155E0,9.396553040E-2,-1.556757092E-2,7.819223404E-2,1.232310660E-1
4.549966424E0,9.163045883E-2,-2.291032672E-2,7.094240189E-2,1.181264087E-1
4.558176539E0,7.736682892E-2,-8.797198534E-3,8.279657364E-2,1.136586535E-1
4.566412001E0,9.427213669E-2,-1.133137941E-2,7.064914703E-2,1.183509100E-1
4.574624193E0,1.183843613E-1,-1.151421666E-2,8.001995087E-2,1.433548978E-1
4.582865078E0,8.501482010E-2,9.797781706E-3,9.181499481E-2,1.255129851E-1
4.591074116E0,9.219360352E-2,-2.397865057E-3,8.225345612E-2,1.235760548E-1
4.599284078E0,8.488416672E-2,-1.463481784E-2,8.481884003E-2,1.208872834E-1
4.607516616E0,1.039385796E-1,-2.892214060E-2,9.451866150E-2,1.434346399E-1
4.615726308E0,1.205348969E-1,-1.476427913E-2,7.557868958E-2,1.430342044E-1
4.623969231E0,1.153988838E-1,-1.258781552E-2,8.560228348E-2,1.442328202E-1
4.632178116E0,9.114503860E-2,8.875817060E-3,1.027574539E-1,1.376418996E-1
4.640388962E0,1.075320244E-1,-1.297435164E-2,7.929754257E-2,1.342369931E-1
4.648623924E0,1.239438057E-1,-2.533361316E-2,7.017564774E-2,1.446667911E-1
4.656833924E0,1.020703316E-1,-1.590192318E-3,7.538270950E-2,1.268993073E-1
4.665051462E0,8.495855331E-2,-2.342981100E-2,7.105255127E-2,1.132050214E-1
4.673262116E0,7.505989075E-2,7.664561272E-3,7.864046097E-2,1.089819012E-1
4.681472924E0,6.777000427E-2,-1.155599952E-2,5.962514877E-2,9.100259870E-2
4.689704847E0,1.010556221E-1,-1.168152690E-2,8.147192001E-2,1.303317712E-1
4.697914462E0,1.007881165E-1,-2.256423235E-3,8.420944214E-2,1.313566367E-1
4.706186847E0,9.821367264E-2,-1.887056231E-2,8.203554153E-2,1.293516667E-1
4.714396962E0,1.076445580E-1,-2.201020718E-3,8.461713791E-2,1.369388746E-1
4.722607770E0,1.004343033E-1,-4.605442286E-3,6.549930573E-2,1.199934099E-1
4.730841923E0,1.100454330E-1,4.892766476E-3,9.179449081E-2,1.433881621E-1
4.739053885E0,1.124701500E-1,-9.721904993E-3,6.782674789E-2,1.316985870E-1
4.747294308E0,8.613586426E-2,-2.191284299E-2,7.501792908E-2,1.163067044E-1
4.755504616E0,9.342765808E-2,-2.413022518E-2,5.092954636E-2,1.091091827E-1
4.763714577E0,8.632230759E-2,-2.628973126E-2,6.758165359E-2,1.127385057E-1
4.771948462E0,9.594869614E-2,-1.660507917E-2,8.427286148E-2,1.287780887E-1
4.780157154E0,1.032371521E-1,-9.251534939E-3,6.258392334E-2,1.210795108E-1
4.788409692E0,1.151852608E-1,-1.382860541E-2,7.457351685E-2,1.379133208E-1
4.796619654E0,1.463413239E-1,-1.843991876E-2,7.213258743E-2,1.641917289E-1
4.804829846E0,1.297020912E-1,7.957696915E-3,7.197809219E-2,1.485489925E-1
4.813063038E0,1.250000000E-1,-1.753002405E-3,6.229925156E-2,1.396755876E-1
4.821274115E0,1.178951263E-1,-3.510990739E-2,7.655858994E-2,1.448902485E-1
4.829491461E0,1.012096405E-1,-3.252193332E-2,7.406187057E-2,1.295616770E-1
4.837702346E0,8.692646027E-2,-1.566168666E-2,7.634925842E-2,1.167506196E-1
4.845911231E0,8.701181412E-2,-8.396953344E-3,5.947780609E-2,1.057316132E-1
4.854144346E0,8.956336975E-2,1.226752996E-3,6.885433197E-2,1.129779676E-1
4.862352538E0,1.065130234E-1,-2.034077048E-2,7.579946518E-2,1.323039305E-1
4.870593038E0,1.402096748E-1,-5.808979273E-3,8.993434906E-2,1.666753860E-1
4.878802000E0,1.475105286E-1,-3.447502851E-3,9.457349777E-2,1.752580606E-1
4.887012461E0,1.211795807E-1,1.102101803E-2,9.456300735E-2,1.541042374E-1
4.895245615E0,8.280706406E-2,-1.791748405E-2,1.018381119E-1,1.324728165E-1
4.903455730E0,5.644750595E-2,2.498465776E-2,9.229946136E-2,1.110393832E-1
4.911695923E0,3.251409531E-2,7.840633392E-3,7.794141769E-2,8.481454190E-2
4.919905192E0,4.691934586E-2,-1.146772504E-2,6.832027435E-2,8.366955014E-2
4.928115884E0,3.275251389E-2,-1.713812351E-3,6.088066101E-2,6.915286837E-2
4.936350730E0,7.132768631E-2,-2.783963084E-2,7.729291916E-2,1.087974229E-1
4.944561653E0,9.547519684E-2,-3.543227911E-3,1.009597778E-1,1.389998001E-1
4.952836769E0,1.052718163E-1,6.516844034E-3,1.293921471E-1,1.669339758E-1
4.961047846E0,1.195821762E-1,1.169657707E-2,1.462020874E-1,1.892399459E-1
4.969258115E0,1.051506996E-1,-7.286071777E-3,1.271243095E-1,1.651373566E-1
4.977494192E0,1.120953560E-1,-2.442270517E-3,9.868907928E-2,1.493682292E-1
4.985704192E0,6.391811371E-2,2.417713404E-3,7.511234283E-2,9.865715709E-2
4.993918730E0,5.157756805E-2,1.937091351E-2,4.683923721E-2,7.231453491E-2
5.002125884E0,4.168987274E-2,3.135353327E-3,4.720497131E-2,6.305699998E-2
5.010334345E0,4.386615753E-2,8.316159248E-3,5.943202972E-2,7.433414046E-2
5.018567268E0,8.198356628E-2,-1.761719584E-2,7.401704788E-2,1.118489790E-1
5.026775884E0,9.139060974E-2,-2.179315686E-2,8.138418198E-2,1.243003231E-1
5.035027230E0,1.104092598E-1,-1.888778806E-2,9.589576721E-2,1.474549130E-1
5.043236614E0,1.366372108E-1,-3.291633725E-2,9.601688385E-2,1.702129685E-1
5.051443538E0,1.220369339E-1,-3.729367256E-2,7.474517822E-2,1.478873656E-1
5.059673730E0,1.218290329E-1,-2.021715045E-2,9.414482117E-2,1.552877773E-1
5.067880576E0,1.287717819E-1,-3.206411004E-2,6.571102142E-2,1.480817926E-1
5.076122576E0,9.982919693E-2,-1.045066118E-2,7.555103302E-2,1.256305833E-1
5.084332114E0,1.093101501E-1,-1.984903216E-2,6.608724594E-2,1.292680049E-1
5.092541884E0,8.767032623E-2,-1.753345132E-2,6.860208511E-2,1.126931857E-1
5.100776037E0,8.269691467E-2,-7.984995842E-3,6.404685974E-2,1.049025267E-1
5.108986845E0,8.493804932E-2,-1.042875648E-2,7.860803604E-2,1.162000625E-1
5.117228922E0,8.478307724E-2,-8.041560650E-4,7.401132584E-2,1.125455161E-1
5.125440422E0,1.062040329E-1,-6.486773491E-4,8.613395691E-2,1.367434676E-1
5.133651268E0,9.419679642E-2,4.308789968E-3,7.659721375E-2,1.214855353E-1
5.141884845E0,1.060690880E-1,-5.114555359E-3,7.192564011E-2,1.282579737E-1
5.150095153E0,1.108212471E-1,-7.347881794E-3,8.153867722E-2,1.377820600E-1
5.158312422E0,1.036891937E-1,-1.199465990E-2,7.189273834E-2,1.267433887E-1
5.166520537E0,1.011357307E-1,-1.889523864E-2,9.123373032E-2,1.375102164E-1
5.174729268E0,1.036505699E-1,-2.827945352E-2,1.126222610E-1,1.556500621E-1
5.182961075E0,1.202630997E-1,-2.813509107E-2,1.008291245E-1,1.594406122E-1
5.191171345E0,1.011199951E-1,-3.057998419E-2,9.842300415E-2,1.443865527E-1
5.199445922E0,1.227455139E-1,-2.141016722E-2,9.834432602E-2,1.587339375E-1
5.207654152E0,1.034812927E-1,-2.227902412E-3,7.932901382E-2,1.304087188E-1
5.215861922E0,9.614944458E-2,-1.418939233E-2,6.514978409E-2,1.170066191E-1
5.224094460E0,1.152129173E-1,-1.660421491E-2,7.244873047E-2,1.371077489E-1
5.232303768E0,1.151185036E-1,7.289409637E-3,8.453941345E-2,1.430116002E-1
5.240544883E0,8.623695374E-2,-7.126182318E-3,7.276153564E-2,1.130567810E-1
5.248753191E0,8.615159988E-2,-1.446267962E-2,7.527017593E-2,1.153120403E-1
5.256962114E0,8.367109299E-2,-1.214709878E-2,7.777786255E-2,1.148816770E-1
5.265195960E0,1.051335335E-1,-2.406835556E-4,8.746433258E-2,1.367593772E-1
5.273405537E0,1.002573967E-1,-1.934766769E-2,7.799625397E-2,1.284884955E-1
5.281656691E0,8.826684952E-2,-1.703208685E-2,8.520698547E-2,1.238602401E-1
5.289866498E0,1.265821457E-1,-2.182504535E-2,8.280229568E-2,1.528253656E-1
5.298076844E0,1.169781685E-1,-1.460573077E-2,7.565307617E-2,1.400735778E-1
5.306311229E0,1.169495583E-1,-2.416604757E-2,9.723615646E-2,1.540002180E-1
5.314520190E0,1.168341637E-1,2.074182034E-3,8.301973343E-2,1.433415507E-1
5.322733113E0,1.216511726E-1,-5.161195993E-3,8.059072495E-2,1.460154468E-1
5.330941690E0,8.104181290E-2,-1.707985997E-2,7.807922363E-2,1.138238210E-1
5.339150498E0,8.356809616E-2,-5.321472883E-3,9.228801727E-2,1.246155002E-1
5.347384229E0,1.028819084E-1,-5.424231291E-3,7.772779465E-2,1.290570394E-1
5.355591883E0,6.940174103E-2,-1.022461057E-2,8.246707916E-2,1.082680168E-1
5.363831613E0,6.481361389E-2,-2.459844947E-2,9.418535233E-2,1.169477185E-1
5.372039267E0,1.008968353E-1,-1.019185781E-2,9.875822067E-2,1.415529282E-1
5.380248036E0,8.897256851E-2,-7.865905762E-3,7.954931259E-2,1.196080413E-1
5.388481882E0,9.158611298E-2,8.908241987E-3,6.969499588E-2,1.154329473E-1
5.396689190E0,1.300840378E-1,-1.497426629E-2,1.053647995E-1,1.680708973E-1
5.404928652E0,1.085424423E-1,-2.205240726E-2,8.380413055E-2,1.388916943E-1
5.413136652E0,1.109690666E-1,-4.589711130E-2,7.657527924E-2,1.424234951E-1
5.421344844E0,1.060967445E-1,-3.384497762E-2,8.864879608E-2,1.423397722E-1
5.429577267E0,8.933782578E-2,-3.393238783E-2,5.273818970E-2,1.091511370E-1
5.437786998E0,9.402990341E-2,-2.666357160E-2,6.003999710E-2,1.147055798E-1
5.446061382E0,9.651279449E-2,-2.178338170E-2,7.668304443E-2,1.251779714E-1
5.454270767E0,9.423780441E-2,-1.933684945E-2,7.413625717E-2,1.214531274E-1
5.462480651E0,1.062674522E-1,-1.663824916E-2,9.559631348E-2,1.439036410E-1
5.470714882E0,1.373929977E-1,-1.908609271E-2,1.051735878E-1,1.740764152E-1
5.478926767E0,1.158246994E-1,-4.980415106E-3,9.563684464E-2,1.502882949E-1
5.487140690E0,1.015286446E-1,-1.963683963E-2,8.359050751E-2,1.329700872E-1
5.495348074E0,7.969474792E-2,-2.001577616E-2,8.157300949E-2,1.157844550E-1
5.503557074E0,7.723760605E-2,3.426462412E-3,8.406972885E-2,1.142151817E-1
5.511789767E0,6.028890610E-2,1.754149795E-2,7.235002518E-2,9.579656827E-2
5.519999536E0,6.743335724E-2,-1.358631253E-2,8.197450638E-2,1.070124537E-1
5.528250151E0,7.224655151E-2,1.980391145E-2,8.434295654E-2,1.128073288E-1
5.536459882E0,1.033554077E-1,-1.596331596E-3,9.872102737E-2,1.429361040E-1
5.544671651E0,1.153163910E-1,-6.189644337E-3,1.083016396E-1,1.583206457E-1
5.552906574E0,1.032223701E-1,-3.631204367E-3,1.180267334E-1,1.568386213E-1
5.561117882E0,9.588861465E-2,1.053982973E-2,9.907245636E-2,1.382789429E-1
5.569361189E0,9.076213837E-2,-8.707761765E-3,8.513593674E-2,1.247466176E-1
5.577573074E0,9.041929245E-2,-6.319552660E-3,6.880760193E-2,1.137983799E-1
5.585783728E0,5.665588379E-2,-1.115691662E-2,6.433200836E-2,8.644636057E-2
5.594019574E0,5.404090881E-2,-1.812601089E-2,6.459903717E-2,8.615107486E-2
5.602231766E0,7.063722610E-2,-1.291164756E-2,7.436180115E-2,1.033731388E-1
5.610475997E0,1.017169952E-1,-2.681174874E-2,6.960725784E-2,1.261363839E-1
5.618686689E0,1.040067673E-1,-1.690611243E-2,8.169507980E-2,1.333315804E-1
5.626895997E0,1.326608658E-1,-3.347644210E-2,8.178186417E-2,1.593984027E-1
5.635129266E0,1.324019432E-1,-1.433917880E-2,9.647607803E-2,1.644491418E-1
5.643337958E0,1.178293228E-1,-2.401232719E-2,7.519292831E-2,1.418249542E-1
5.651554381E0,1.081376076E-1,-1.219311357E-2,6.816196442E-2,1.284074281E-1
5.659765266E0,6.498956680E-2,1.165273786E-2,6.823253632E-2,9.494792839E-2
5.667975612E0,7.941341400E-2,4.546850920E-3,4.421329498E-2,9.100538242E-2
5.676208843E0,6.032276154E-2,-1.930090785E-2,5.610084534E-2,8.460889699E-2
5.684418920E0,9.383916855E-2,-2.384296060E-2,7.045793533E-2,1.197438807E-1
5.692693574E0,1.082644463E-1,-1.402398944E-2,9.191799164E-2,1.427122272E-1
5.700903958E0,1.155076027E-1,-1.363834739E-2,1.061902046E-1,1.574940328E-1
5.709113343E0,1.083636284E-1,-2.314284444E-2,1.061391830E-1,1.534398689E-1
5.717347266E0,1.012153625E-1,3.192931414E-3,8.694219589E-2,1.334679357E-1
5.725556843E0,8.691596985E-2,-1.585426927E-2,8.924722672E-2,1.255818902E-1
5.733797304E0,8.702039719E-2,5.578368902E-3,6.996870041E-2,1.118002091E-1
5.742005881E0,8.478403091E-2,-8.879184723E-3,6.019783020E-2,1.043597172E-1
5.750213727E0,9.705400467E-2,-2.311331034E-2,6.699562073E-2,1.201753641E-1
5.758446881E0,1.092038155E-1,-2.552577853E-2,7.155990601E-2,1.330332997E-1
5.766655458E0,1.331682205E-1,-2.314752340E-2,8.829164505E-2,1.614465775E-1
5.774904919E0,1.093425751E-1,-3.740853071E-2,9.532403946E-2,1.498061060E-1
5.783113189E0,1.022787094E-1,-2.055734396E-2,1.023530960E-1,1.461495640E-1
5.791321458E0,1.070733070E-1,-3.770470619E-3,8.797883987E-2,1.386332781E-1
5.799552919E0,9.994459152E-2,-2.753433585E-2,7.353639603E-2,1.271009936E-1
5.807759727E0,1.023011208E-1,-3.430128098E-3,7.357645035E-2,1.260586337E-1
5.815971265E0,9.035158157E-2,6.374776363E-3,7.593250275E-2,1.181938706E-1
5.824177919E0,9.522581100E-2,-2.211406827E-2,6.863260269E-2,1.194463112E-1
5.832384535E0,7.127952576E-2,-1.975595951E-4,9.016752243E-2,1.149390792E-1
5.840616188E0,7.598972321E-2,-1.434984803E-2,8.786439896E-2,1.170491725E-1
5.848823381E0,8.066654205E-2,-4.483580589E-3,9.038496017E-2,1.212296768E-1
5.857065227E0,5.189704895E-2,-2.576586604E-2,9.521102905E-2,1.114554781E-1
5.865273342E0,7.332563400E-2,-2.103328705E-2,7.620906830E-2,1.078279642E-1
5.873481727E0,8.033466339E-2,-2.561843395E-2,8.839035034E-2,1.221589798E-1
5.881714342E0,9.701776505E-2,-3.249108791E-2,1.004419327E-1,1.433760767E-1
5.889922534E0,1.064519882E-1,-6.056964397E-3,9.343481064E-2,1.417701536E-1
5.898163534E0,1.134796143E-1,-8.271992207E-3,9.362125397E-2,1.473464893E-1
5.906372957E0,1.445302963E-1,-2.971461415E-2,8.413410187E-2,1.698543845E-1
5.914582227E0,1.133236885E-1,-1.518499851E-2,7.465314865E-2,1.365501196E-1
5.922816150E0,1.228132248E-1,4.008352757E-3,7.715463638E-2,1.450930494E-1
5.931023265E0,1.250457764E-1,1.876473427E-3,7.495307922E-2,1.458009994E-1
5.939294111E0,1.081194878E-1,-9.926766157E-3,6.078863144E-2,1.244332031E-1
5.947502188E0,1.176509857E-1,-2.162015438E-2,7.998752594E-2,1.438999299E-1
5.955711111E0,1.104440689E-1,-2.854323387E-2,6.085205078E-2,1.292887491E-1
5.963944149E0,1.225976944E-1,-1.870939136E-2,6.061124802E-2,1.380360800E-1
5.972152803E0,9.175300598E-2,-2.088031173E-2,6.982707977E-2,1.171768859E-1
5.980366496E0,1.088557243E-1,-1.117035747E-2,8.614683151E-2,1.392681664E-1
5.988575419E0,1.163139343E-1,-4.442454875E-2,8.818197250E-2,1.525730387E-1
5.996785611E0,9.275102615E-2,-1.552653313E-2,9.487915039E-2,1.335884698E-1
6.005021265E0,1.002917290E-1,-2.493366599E-2,9.442138672E-2,1.399839879E-1
6.013229995E0,9.340667725E-2,-2.750352025E-2,6.053543091E-2,1.146550887E-1
6.021480457E0,6.248950958E-2,-3.222337365E-2,7.224321365E-2,1.008085638E-1
6.029687957E0,9.624767303E-2,-2.290448546E-2,7.434797287E-2,1.237572264E-1
6.037897188E0,7.506227493E-2,-2.049553394E-2,7.867860794E-2,1.106559324E-1
6.046131765E0,1.015520096E-1,-3.006502986E-2,8.566761017E-2,1.362191473E-1
6.054341649E0,1.305570602E-1,-6.294548512E-3,9.490680695E-2,1.615303975E-1
6.062584803E0,1.569442749E-1,-3.023365140E-2,1.068134308E-1,1.922360219E-1
6.070794611E0,1.426677704E-1,-4.170566797E-3,1.210799217E-1,1.871679294E-1
6.079002649E0,1.117043495E-1,1.443561912E-2,1.113233566E-1,1.583639433E-1
6.087234418E0,7.583713531E-2,4.438549280E-3,8.494997025E-2,1.139625783E-1
6.095442880E0,4.721450806E-2,1.378270984E-2,7.045841217E-2,8.592764809E-2
6.103683803E0,4.962778091E-2,4.065185785E-3,6.804656982E-2,8.431949975E-2
6.111891687E0,6.174087524E-2,-7.824122906E-3,7.265281677E-2,9.566391357E-2
6.120099572E0,4.277706146E-2,-3.166750073E-2,8.198738098E-2,9.774782980E-2
6.128331226E0,7.895803452E-2,-1.514539123E-2,1.056022644E-1,1.327237444E-1
6.136537572E0,6.945896149E-2,-1.037219167E-2,1.246585846E-1,1.430800210E-1
6.144751495E0,9.574317932E-2,3.633975983E-3,1.343164444E-1,1.649874826E-1
6.152961033E0,1.028304100E-1,9.733736515E-4,1.344494820E-1,1.692681419E-1
6.161171110E0,7.153797150E-2,3.279894590E-3,1.202983856E-1,1.400005023E-1
6.169405033E0,6.887149811E-2,1.255857944E-2,7.516622543E-2,1.027178788E-1
6.177614302E0,4.698991776E-2,-9.052485228E-3,7.080173492E-2,8.545692206E-2
6.185887649E0,7.531595230E-2,5.237162113E-4,4.976177216E-2,9.027181685E-2
6.194095879E0,6.787872314E-2,-2.029180527E-3,5.966567993E-2,9.039707955E-2
6.202303764E0,9.626007080E-2,-3.271833062E-2,6.247854233E-2,1.193317168E-1
6.210536610E0,1.055378914E-1,-1.269578934E-3,8.438873291E-2,1.351344390E-1
6.218746110E0,1.243596077E-1,-1.798591018E-2,9.198760986E-2,1.557258018E-1
6.226988302E0,1.167783737E-1,-2.036637068E-2,9.488248825E-2,1.518376245E-1
6.235199225E0,9.478092194E-2,-1.569396257E-2,7.629919052E-2,1.226836994E-1
6.243410071E0,1.015868187E-1,-1.201033592E-3,7.197952271E-2,1.245085375E-1
6.251643456E0,9.172773361E-2,-8.529335260E-3,6.037187576E-2,1.101430436E-1
6.259853071E0,8.188581467E-2,-2.056744695E-2,4.873752594E-2,9.748668090E-2
6.268103687E0,9.856510162E-2,-1.475036144E-3,6.320667267E-2,1.170996945E-1
6.276313648E0,1.056022644E-1,-1.115676761E-2,7.297325134E-2,1.288464478E-1
6.284524148E0,1.150379181E-1,-2.084010839E-2,9.230804443E-2,1.489590809E-1
6.292759071E0,1.125650406E-1,-1.382523775E-2,8.523273468E-2,1.418684060E-1
6.300970917E0,1.126294136E-1,-6.773442030E-3,8.515548706E-2,1.413602536E-1
6.309189071E0,1.197490692E-1,-9.363293648E-3,5.412101746E-2,1.317444320E-1
6.317400340E0,1.054677963E-1,-2.165070176E-2,6.121253967E-2,1.238514593E-1
6.325611687E0,9.848260880E-2,-2.183905244E-2,4.181814194E-2,1.091994755E-1
6.333846110E0,1.131253242E-1,-3.864961863E-2,6.780719757E-2,1.374370694E-1
6.342057302E0,1.277813911E-1,-3.644800186E-2,6.984472275E-2,1.501160420E-1
6.350299571E0,1.472306252E-1,-4.595233500E-2,8.622789383E-2,1.767023592E-1
6.358511417E0,1.402220726E-1,-3.899127245E-2,8.841276169E-2,1.702920004E-1
6.366723263E0,1.356568336E-1,-2.233898640E-2,7.616472244E-2,1.571714725E-1
6.374958840E0,1.120085716E-1,-8.154362440E-3,7.340908051E-2,1.341689489E-1
6.383169648E0,1.193366051E-1,-2.519130707E-2,8.042240143E-2,1.460944555E-1
6.391412186E0,7.889604568E-2,5.810856819E-3,8.488702774E-2,1.160351652E-1
6.399623571E0,7.916307449E-2,-1.601970196E-2,6.541109085E-2,1.039328342E-1
6.407834148E0,6.508302689E-2,-4.443526268E-3,7.943534851E-2,1.027887149E-1
6.416070571E0,6.292152405E-2,-1.402559876E-2,7.195901871E-2,9.661229726E-2
6.424280763E0,8.480405807E-2,-3.075945377E-2,9.787273407E-2,1.331050124E-1
6.432555340E0,1.042413712E-1,-2.854338288E-2,9.752416611E-2,1.455745553E-1
6.440766801E0,1.164360046E-1,-2.889394760E-2,9.965276718E-2,1.559579347E-1
6.448976378E0,1.094164848E-1,-2.206015587E-2,8.270406723E-2,1.389193304E-1
6.457209840E0,9.276437759E-2,-2.242738008E-2,8.737564087E-2,1.293936619E-1
6.465417609E0,9.056997299E-2,1.056969166E-3,8.235645294E-2,1.224198617E-1
6.473631955E0,7.884120941E-2,1.497852802E-2,9.404325485E-2,1.236302001E-1
6.481841340E0,5.981111526E-2,-4.476130009E-3,7.953548431E-2,9.961575435E-2
6.490049686E0,5.751514435E-2,1.200610399E-2,7.942485809E-2,9.879497176E-2
6.498283917E0,6.491518021E-2,1.183074713E-2,6.718969345E-2,9.417219390E-2
6.506492994E0,6.995296478E-2,-7.315874100E-3,7.884740829E-2,1.056591363E-1
6.514743686E0,8.924102783E-2,7.022142410E-3,1.145920753E-1,1.454118814E-1
6.522951647E0,8.208751678E-2,9.079694748E-3,1.121768951E-1,1.392998818E-1
6.531161763E0,8.682155609E-2,1.654624939E-3,1.146507263E-1,1.438245787E-1
6.539393878E0,6.762981415E-2,-7.189810276E-4,1.146960258E-1,1.331521199E-1
6.547601378E0,5.066776276E-2,2.077448368E-2,1.197428703E-1,1.316706359E-1
6.555842109E0,7.207584381E-2,-2.231425047E-2,1.031584740E-1,1.278065874E-1
6.564049339E0,6.229925156E-2,1.553505659E-3,7.707738876E-2,9.911878723E-2
6.572258570E0,8.126926422E-2,-1.033332944E-2,8.927631378E-2,1.211681939E-1
6.580492416E0,8.598232269E-2,-2.691373229E-2,9.415197372E-2,1.303146306E-1
6.588701647E0,9.292268753E-2,6.746232510E-3,9.444952011E-2,1.326681927E-1
6.596945493E0,8.075809479E-2,-9.543061256E-3,8.269929886E-2,1.159832485E-1
6.605153801E0,8.527135849E-2,-3.805398941E-2,8.782291412E-2,1.281880452E-1
6.613361916E0,1.136493683E-1,-3.565189242E-2,8.108377457E-2,1.440896070E-1
6.621594108E0,1.036901474E-1,-1.654019952E-2,6.241464615E-2,1.221507795E-1
6.629802839E0,9.852695465E-2,-2.839213610E-2,4.133176804E-2,1.105531059E-1
6.638018108E0,1.269555092E-1,-2.586013079E-2,4.410123825E-2,1.368625840E-1
6.646226378E0,1.242485046E-1,-2.806320786E-2,6.603193283E-2,1.434763071E-1
6.654434339E0,1.479921341E-1,-4.047244787E-3,7.585573196E-2,1.663494635E-1
6.662668801E0,1.404356956E-1,-2.070522308E-2,5.716896057E-2,1.530332674E-1
6.670878493E0,1.258182526E-1,-1.359787583E-2,6.706714630E-2,1.432240797E-1
6.679152108E0,1.136727333E-1,-6.279945374E-3,5.530834198E-2,1.265699044E-1
6.687364031E0,9.199285507E-2,5.789816380E-3,6.504678726E-2,1.128152999E-1
6.695571493E0,7.759380341E-2,-3.701329231E-3,5.790376663E-2,9.688830866E-2
6.703802416E0,9.211254120E-2,-2.043166757E-2,7.446718216E-2,1.201978973E-1
6.712010339E0,7.553911209E-2,-2.011805773E-2,7.421970367E-2,1.077935903E-1
6.720250762E0,1.020636559E-1,-3.170081973E-2,9.072494507E-2,1.401889706E-1
6.728458531E0,1.142177582E-1,-1.934355497E-2,1.024451256E-1,1.546443441E-1
6.736665916E0,1.335353851E-1,4.880905151E-3,1.213812828E-1,1.805240652E-1
6.744911954E0,1.121587753E-1,-2.832302451E-2,1.307291985E-1,1.745620461E-1
6.753119877E0,9.775781631E-2,1.012405753E-2,1.211910248E-1,1.560331749E-1
6.761370416E0,1.096334457E-1,1.981323957E-2,1.117281914E-1,1.577822729E-1
6.769579839E0,8.323144913E-2,5.525469780E-3,6.153011322E-2,1.036530741E-1
6.777789146E0,8.555650711E-2,-8.677214384E-3,4.724359512E-2,9.811812900E-2
6.786022031E0,6.633043289E-2,-1.802518964E-2,4.014158249E-2,7.959887206E-2
6.794233300E0,7.822513580E-2,-3.650909662E-2,6.175518036E-2,1.061404179E-1
6.802448954E0,6.860494614E-2,-1.910877228E-2,7.375049591E-2,1.025227753E-1
6.810656992E0,9.497356415E-2,-2.342778444E-2,8.565998077E-2,1.300248871E-1
6.818864223E0,9.742355347E-2,-1.807138324E-2,8.077526093E-2,1.278380477E-1
6.827096685E0,1.190357208E-1,-2.495864034E-2,9.025859833E-2,1.514564331E-1
6.835304954E0,9.282493591E-2,-3.253161907E-3,8.530521393E-2,1.261111863E-1
6.843546761E0,6.656312943E-2,-1.996830106E-2,8.042001724E-2,1.062862287E-1
6.851756223E0,1.073923111E-1,-5.524903536E-3,7.786083221E-2,1.327627291E-1
6.859964569E0,7.873153687E-2,-7.702082396E-3,8.494567871E-2,1.160764632E-1
6.868196184E0,8.120822906E-2,-2.179521322E-2,1.039853096E-1,1.337264088E-1
6.876405415E0,7.887220383E-2,2.268821001E-3,9.193515778E-2,1.211529831E-1
6.884645492E0,6.931877136E-2,1.050829887E-4,8.710670471E-2,1.113224196E-1
6.892853646E0,7.406139374E-2,-4.536330700E-3,1.063108444E-1,1.296443750E-1
6.901060723E0,6.682825089E-2,4.957169294E-3,7.764816284E-2,1.025662022E-1
6.909291492E0,7.638406754E-2,-9.419113398E-3,8.485651016E-2,1.145594727E-1
6.917499530E0,9.072208405E-2,-2.328911424E-2,6.810998917E-2,1.158095419E-1
6.925769838E0,8.360385895E-2,-3.476035595E-2,8.237218857E-2,1.224053309E-1
6.933976415E0,9.560394287E-2,-3.930602968E-2,8.471679688E-2,1.336488441E-1
6.942183107E0,1.458101273E-1,-1.272577047E-2,8.479785919E-2,1.691544128E-1
6.950415607E0,1.625428200E-1,-6.027939916E-2,8.721208572E-2,1.940611300E-1
6.958622492E0,1.408977509E-1,-4.591916502E-2,8.733415604E-2,1.720116296E-1
6.966835723E0,1.313066483E-1,-3.640623391E-2,7.777786255E-2,1.568956521E-1
6.975044684E0,1.144709587E-1,-2.222368121E-2,7.069921494E-2,1.363666799E-1
6.983252992E0,1.023573875E-1,-4.842877388E-4,6.368732452E-2,1.205543223E-1
6.991486453E0,9.263086319E-2,-5.253225565E-3,4.232788086E-2,1.019790306E-1
6.999694607E0,8.309125900E-2,-3.239721060E-3,5.187559128E-2,9.800882657E-2
7.007946261E0,1.046943665E-1,-5.563318729E-3,4.701471329E-2,1.149010189E-1
7.016153722E0,9.523248672E-2,-1.034969091E-2,6.123352051E-2,1.136920695E-1
7.024359838E0,1.241602898E-1,-1.971986890E-2,8.012866974E-2,1.490813687E-1
7.032592645E0,1.146717072E-1,-1.735812426E-2,1.063561440E-1,1.573611587E-1
7.040799876E0,1.266765594E-1,-2.438566089E-2,1.063070297E-1,1.671609875E-1
7.049037568E0,1.291737556E-1,-1.744610071E-2,1.037936211E-1,1.666233518E-1
7.057245684E0,1.125507355E-1,-1.744782925E-2,1.084108353E-1,1.572418647E-1
7.065453145E0,1.030540466E-1,-1.015782356E-2,9.393930435E-2,1.398138434E-1
7.073687414E0,9.356498718E-2,-3.016263247E-3,8.425331116E-2,1.259449289E-1
7.081897837E0,1.008090973E-1,8.869826794E-3,7.460451126E-2,1.257258169E-1
7.090138914E0,8.416986465E-2,1.363220811E-2,8.642387390E-2,1.214062980E-1
7.098348184E0,7.956409454E-2,4.031449556E-3,8.140754700E-2,1.139029694E-1
7.106557760E0,8.444261551E-2,8.858144283E-3,9.805154800E-2,1.297040019E-1
7.114791491E0,6.533098221E-2,-3.204643726E-3,8.363723755E-2,1.061771844E-1
7.123001030E0,7.967996597E-2,-8.196890354E-3,8.127403259E-2,1.141120255E-1
7.131218337E0,8.929157257E-2,-8.041828871E-3,6.685781479E-2,1.118374863E-1
7.139425953E0,9.892654419E-2,8.854776621E-3,7.875013351E-2,1.267535078E-1
7.147633260E0,9.416961670E-2,-1.718699932E-2,7.869577408E-2,1.239206783E-1
7.155865530E0,9.423685074E-2,-1.707535982E-2,7.621192932E-2,1.223944857E-1
7.164074145E0,8.951473236E-2,-2.408099174E-2,8.569812775E-2,1.262416357E-1
7.172345568E0,8.952760696E-2,6.959170103E-3,1.000504494E-1,1.344385171E-1
7.180554683E0,6.318855286E-2,-2.190217376E-2,8.808898926E-2,1.105991341E-1
7.188764068E0,7.749652863E-2,-1.953107119E-2,9.773874283E-2,1.262538575E-1
7.196998029E0,9.889554977E-2,-3.609482944E-2,9.073448181E-2,1.389816990E-1
7.205206222E0,7.712030411E-2,-2.164134383E-2,9.580469131E-2,1.248776519E-1
7.213443991E0,9.368658066E-2,-3.595878184E-2,8.647012711E-2,1.324661929E-1
7.221651375E0,1.149520874E-1,-2.877163887E-2,1.107659340E-1,1.622062938E-1
7.229860452E0,1.171183586E-1,7.246315479E-3,1.014714241E-1,1.551311346E-1
7.238093183E0,1.311764717E-1,7.126063108E-3,8.989191055E-2,1.591810387E-1
7.246301529E0,1.332225800E-1,6.983131170E-3,7.836580276E-2,1.547198080E-1
7.254550529E0,1.185936928E-1,-1.482963562E-2,6.673860550E-2,1.368883615E-1
7.262758798E0,1.158447266E-1,-1.978710294E-2,5.282831192E-2,1.288501481E-1
7.270966260E0,9.866333008E-2,-2.004984021E-2,7.013130188E-2,1.226982001E-1
7.279199221E0,8.869886398E-2,3.455847502E-3,5.148506165E-2,1.026164847E-1
7.287407837E0,7.409095764E-2,-1.817527413E-2,5.418872833E-2,9.357472347E-2
7.295623221E0,7.172918320E-2,-8.573025465E-3,6.372356415E-2,9.632894225E-2
7.303833567E0,9.327411652E-2,5.821824074E-3,5.893802643E-2,1.104882139E-1
7.312042837E0,1.196336746E-1,1.156330109E-3,7.805585861E-2,1.428505172E-1
7.320275606E0,1.435685158E-1,3.799110651E-3,1.139678955E-1,1.833440295E-1
7.328482144E0,1.292309761E-1,-2.254384756E-2,1.067509651E-1,1.691290596E-1
7.336723183E0,1.029801369E-1,1.101472974E-2,1.042470932E-1,1.469479136E-1
7.344931721E0,7.897233963E-2,-3.357052803E-3,8.278274536E-2,1.144590895E-1
7.353140490E0,8.136367798E-2,-5.766004324E-3,5.884408951E-2,1.005779388E-1
7.361372413E0,7.641410828E-2,-3.201276064E-3,6.143474579E-2,9.809990878E-2
7.369580490E0,5.240201950E-2,-1.015168428E-2,4.954099655E-2,7.282402544E-2
7.377820721E0,6.424570084E-2,-3.377908468E-2,6.644630432E-2,9.840552828E-2
7.386030990E0,1.049370766E-1,-4.030059278E-2,7.840108871E-2,1.370498396E-1
7.394240759E0,1.026306152E-1,-1.095157862E-2,9.741640091E-2,1.419258096E-1
7.402474798E0,1.098427773E-1,-3.907807171E-2,9.735250473E-2,1.518882536E-1
7.410684413E0,1.002759933E-1,-4.338787496E-2,1.068949699E-1,1.528539078E-1
7.418958375E0,9.538745880E-2,-4.777134955E-2,1.046094894E-1,1.494122298E-1
7.427168375E0,1.048707962E-1,-2.851897478E-2,9.275102615E-2,1.428774603E-1
7.435378336E0,9.532403946E-2,-2.844020724E-2,8.792257309E-2,1.327625578E-1
7.443610451E0,1.120705605E-1,-2.837562561E-2,8.314561844E-2,1.424014765E-1
7.451819375E0,9.782314301E-2,-2.131414413E-2,8.539772034E-2,1.315919097E-1
7.460036913E0,1.216917038E-1,-9.458124638E-3,8.789062500E-2,1.504097366E-1
7.468247490E0,1.336011887E-1,-4.049597681E-2,8.556842804E-2,1.637411299E-1
7.476456721E0,1.335096359E-1,-2.614697814E-2,9.765529633E-2,1.674665467E-1
7.484689221E0,1.119270325E-1,1.930031180E-2,8.094167709E-2,1.394694150E-1
7.492896682E0,1.046485901E-1,7.119476795E-3,7.867813110E-2,1.311192689E-1
7.501148413E0,8.785724640E-2,3.314369917E-2,5.479049683E-2,1.087170598E-1
7.509357490E0,7.118415833E-2,2.117389441E-2,4.510545731E-2,8.689085383E-2
7.517565913E0,7.382011414E-2,1.870381832E-2,4.240942001E-2,8.716536569E-2
7.525796143E0,9.801959991E-2,-1.226708293E-2,4.207897186E-2,1.073730095E-1
7.534002605E0,1.031937599E-1,9.404510260E-3,6.792259216E-2,1.238986498E-1
7.542242066E0,1.131882668E-1,-2.386471629E-2,9.372282028E-2,1.488793990E-1
7.550452720E0,1.039738655E-1,4.812657833E-3,1.028442383E-1,1.463238317E-1
7.558662374E0,1.186461449E-1,-7.188886404E-3,1.024599075E-1,1.569287113E-1
7.566895682E0,1.115894318E-1,-1.208528876E-2,1.023068428E-1,1.518714771E-1
7.575104989E0,1.070184708E-1,-7.505238056E-3,1.116180420E-1,1.548155967E-1
7.583347451E0,7.365608215E-2,-2.446195483E-2,6.593894958E-2,1.018408108E-1
7.591557220E0,8.345460892E-2,-1.493760943E-2,8.721065521E-2,1.216285423E-1
7.599766028E0,6.213760376E-2,-1.027545333E-2,7.495355606E-2,9.790149288E-2
7.607997374E0,8.145952225E-2,-1.504164934E-2,7.952976227E-2,1.148341764E-1
7.616205259E0,7.208728790E-2,-7.720202208E-3,9.123802185E-2,1.165356393E-1
7.624419835E0,8.896207809E-2,-2.936780453E-3,9.827566147E-2,1.325932942E-1
7.632627951E0,8.423900604E-2,-1.023745537E-2,9.580469131E-2,1.279826336E-1
7.640836028E0,7.230854034E-2,-1.001751423E-2,1.077146530E-1,1.301204137E-1
7.649069566E0,8.433437347E-2,-2.671587467E-2,1.004595757E-1,1.338586973E-1
7.657278835E0,8.189964294E-2,-9.778738022E-3,9.331846237E-2,1.245452153E-1
7.665552297E0,7.230615616E-2,-2.620548010E-3,9.094953537E-2,1.162190409E-1
7.673764028E0,7.934665680E-2,-9.636998177E-3,1.054854393E-1,1.323478054E-1
7.681973028E0,6.718206406E-2,-1.667451859E-2,9.135723114E-2,1.146194267E-1
7.690206681E0,8.140230179E-2,-2.260476351E-3,1.106920242E-1,1.374196810E-1
7.698417720E0,7.881689072E-2,-6.801486015E-3,8.697938919E-2,1.175745577E-1
7.706660989E0,9.289455414E-2,2.948939800E-4,8.974027634E-2,1.291619230E-1
7.714871950E0,9.496212006E-2,-3.098842502E-2,7.339763641E-2,1.239568464E-1
7.723083681E0,9.951210022E-2,-1.606047153E-4,8.807706833E-2,1.328918878E-1
7.731321027E0,9.934234619E-2,-2.396523952E-3,8.109951019E-2,1.282644753E-1
7.739533373E0,8.233213425E-2,4.942119122E-3,9.337997437E-2,1.245906276E-1
7.747786373E0,7.977390289E-2,-2.004325390E-3,8.639383316E-2,1.176086192E-1
7.755996720E0,8.205413818E-2,-3.790171444E-2,1.080842018E-1,1.408957637E-1
7.764206104E0,7.726812363E-2,-2.816548944E-2,1.272277832E-1,1.514944439E-1
7.772438950E0,9.646701813E-2,-1.630130410E-2,1.535105705E-1,1.820360222E-1
7.780648181E0,1.012415886E-1,-2.851501107E-2,7.692432404E-2,1.303085444E-1
7.788862758E0,1.275825500E-1,-5.261471868E-2,3.123283386E-4,1.380062073E-1
7.797072527E0,1.441869736E-1,-5.027472973E-2,-3.300857544E-2,1.562273915E-1
7.805282912E0,1.223802567E-1,-2.593597770E-2,3.212451935E-3,1.251396101E-1
7.813518796E0,1.101012230E-1,8.728504181E-4,8.019447327E-2,1.362137831E-1
7.821729719E0,1.290030479E-1,-2.234393358E-2,1.523041725E-1,2.008422234E-1
7.829973796E0,1.527214050E-1,-4.119767249E-2,1.645445824E-1,2.282454717E-1
7.838180527E0,1.502676010E-1,-3.674946725E-2,1.239337921E-1,1.982182133E-1
7.846388758E0,1.263170242E-1,-2.052357793E-2,7.608413696E-2,1.488825166E-1
7.854622758E0,1.286492348E-1,-1.847469807E-2,4.984140396E-2,1.391980805E-1
7.862834104E0,1.117982864E-1,-7.168114185E-3,9.283065796E-3,1.124118055E-1
7.871075604E0,9.004354477E-2,-2.438902855E-3,7.154464722E-3,9.036024882E-2
7.879284796E0,8.531284332E-2,1.916089654E-2,6.454086304E-2,1.086781680E-1
7.887494950E0,7.843494415E-2,2.532303333E-3,9.288072586E-2,1.215947460E-1
7.895728681E0,9.811258316E-2,-1.891982555E-2,1.017928123E-1,1.426387585E-1
7.903937757E0,1.392831802E-1,-2.610269189E-2,1.155672073E-1,1.828576885E-1
7.912209642E0,1.469020844E-1,-2.372851968E-2,1.150183678E-1,1.880757559E-1
7.920418642E0,1.112790108E-1,4.895091057E-3,1.074748039E-1,1.547831181E-1
7.928626296E0,8.514833450E-2,-1.669555902E-2,1.072177887E-1,1.379298183E-1
7.936858527E0,5.415534973E-2,2.292215824E-3,1.022706032E-1,1.157468463E-1
7.945066680E0,3.039741516E-2,-1.214095950E-2,9.007167816E-2,9.583482119E-2
7.953282911E0,3.301382065E-2,-9.893745184E-3,7.303810120E-2,8.076114644E-2
7.961493757E0,5.715131760E-2,-1.458165050E-2,7.039403915E-2,9.183800075E-2
7.969704526E0,8.364772797E-2,-2.155482769E-2,7.975959778E-2,1.175718777E-1
7.977939565E0,1.221342087E-1,2.516955137E-3,8.671045303E-2,1.498058833E-1
7.986150372E0,1.198234558E-1,-9.404063225E-3,9.618139267E-2,1.539381605E-1
7.994401142E0,1.223301888E-1,-2.122670412E-3,1.151890755E-1,1.680407805E-1
8.002610680E0,9.366369247E-2,-7.025361061E-3,1.079311371E-1,1.430782071E-1
8.010820949E0,6.248998642E-2,-4.630714655E-3,8.644390106E-2,1.067660524E-1
8.019055795E0,5.283451080E-2,-4.745006561E-3,6.739425659E-2,8.576704752E-2
8.027267949E0,6.709098816E-2,1.187908649E-2,6.514406204E-2,9.426591222E-2
8.035510988E0,5.269813538E-2,1.910144091E-2,7.475423813E-2,9.343529652E-2
8.043721526E0,8.392524719E-2,7.230401039E-3,9.137964249E-2,1.242817962E-1
8.051931795E0,9.572362900E-2,-1.890009642E-2,8.919334412E-2,1.321956105E-1
8.060169103E0,1.171193123E-1,-1.961946487E-3,1.085305214E-1,1.596861191E-1
8.068379834E0,1.073064804E-1,-1.623642445E-2,1.016407013E-1,1.486914065E-1
8.076621988E0,1.022253036E-1,-1.763939857E-3,1.067929268E-1,1.478440171E-1
8.084831603E0,7.317209244E-2,-2.817511559E-2,1.000199318E-1,1.270904363E-1
8.093041372E0,8.004331589E-2,-2.331805229E-2,6.689119339E-2,1.068882395E-1
8.101274911E0,8.930063248E-2,-2.119579911E-2,5.533361435E-2,1.071712356E-1
8.109485449E0,8.900308609E-2,-3.089475632E-2,4.613780975E-2,1.049034451E-1
8.117702834E0,9.602785110E-2,-3.317557275E-2,6.069707870E-2,1.183473793E-1
8.125913526E0,1.293516159E-1,-1.182737947E-2,7.052755356E-2,1.478034616E-1
8.134123218E0,1.244630814E-1,-4.300560057E-2,9.699344635E-2,1.635489802E-1
8.142358949E0,1.338391304E-1,-3.357727826E-2,9.246349335E-2,1.661019086E-1
8.150568680E0,1.146025658E-1,-1.684913039E-2,8.777999878E-2,1.453374331E-1
8.158841487E0,1.169424057E-1,-2.184855938E-2,7.349443436E-2,1.398367537E-1
8.167050449E0,1.023259163E-1,-7.552593946E-3,5.944728851E-2,1.185816804E-1
8.175259103E0,8.547067642E-2,-1.224982738E-2,7.632350922E-2,1.152413678E-1
8.183491449E0,1.046218872E-1,-2.665141225E-2,7.393455505E-2,1.308524187E-1
8.191702026E0,1.261854172E-1,-2.197906375E-2,7.152557373E-2,1.467029190E-1
8.199944487E0,1.166749001E-1,-2.677652240E-2,7.623100281E-2,1.419196260E-1
8.208154256E0,1.191391945E-1,-1.980125904E-2,8.812379837E-2,1.495059911E-1
8.216362564E0,1.144237518E-1,-5.713701248E-3,8.086156845E-2,1.402285086E-1
8.224596487E0,8.341217041E-2,-8.273899555E-3,8.790826797E-2,1.214656790E-1
8.232805641E0,8.837270737E-2,-8.412003517E-3,5.178546906E-2,1.027727202E-1
8.241057218E0,6.706333160E-2,-2.275353670E-2,7.781982422E-2,1.052194798E-1
8.249266448E0,4.815673828E-2,-8.172035217E-3,8.468103409E-2,9.775853485E-2
8.257475333E0,6.047391891E-2,-7.760822773E-4,8.423614502E-2,1.036987237E-1
8.265708256E0,9.176301956E-2,-1.015371084E-2,9.599018097E-2,1.331828234E-1
8.273917333E0,1.014480591E-1,4.387140274E-3,1.006350517E-1,1.429628250E-1
8.282133141E0,1.183032990E-1,-1.700112224E-2,8.853530884E-2,1.487387294E-1
8.290342102E0,9.446859360E-2,-1.229104400E-2,1.051640511E-1,1.418973663E-1
8.298551102E0,9.934186935E-2,-1.470571756E-2,1.122412682E-1,1.506093205E-1
8.306784641E0,1.184840202E-1,-7.522642612E-3,9.070825577E-2,1.494089718E-1
8.314993179E0,1.065330505E-1,-3.155410290E-2,9.068536758E-2,1.434182281E-1
8.323234564E0,1.065506935E-1,-2.442279458E-2,9.305953979E-2,1.435604442E-1
8.331443717E0,1.113858223E-1,-1.745295525E-2,7.625007629E-2,1.361083436E-1
8.339652756E0,1.065807343E-1,1.425057650E-3,8.346891403E-2,1.353829506E-1
8.347884102E0,1.088953018E-1,-1.805588603E-2,8.118772507E-2,1.370242624E-1
8.356092140E0,1.208434105E-1,-1.334947348E-2,8.600950241E-2,1.489260649E-1
8.364331794E0,9.218311310E-2,8.845329285E-4,8.353185654E-2,1.244028930E-1
8.372539833E0,1.016898155E-1,-2.098944783E-2,1.027884483E-1,1.461055804E-1
8.380747486E0,8.472585678E-2,-3.100407124E-2,1.078548431E-1,1.406143322E-1
8.388977986E0,7.488679886E-2,-5.087673664E-3,9.623289108E-2,1.220437888E-1
8.397185448E0,6.756830215E-2,-1.255333424E-2,8.684015274E-2,1.107441817E-1
8.405455832E0,8.651876450E-2,3.962486982E-3,6.316518784E-2,1.071962633E-1
8.413665255E0,7.436990738E-2,6.062656641E-3,6.579637527E-2,9.948267150E-2
8.421873525E0,9.345769882E-2,-1.170217991E-3,7.785224915E-2,1.216416194E-1
8.430106563E0,1.219372749E-1,-1.343667507E-3,9.254169464E-2,1.530832117E-1
8.438313794E0,1.505017281E-1,-1.663535833E-3,8.079433441E-2,1.708252381E-1
8.446527563E0,1.359701157E-1,2.735555172E-3,9.059762955E-2,1.634114014E-1
8.454735140E0,9.989309311E-2,2.117127180E-3,5.731439590E-2,1.151870316E-1
8.462942986E0,9.965658188E-2,-5.355238914E-3,5.523157120E-2,1.140641896E-1
8.471173448E0,7.808303833E-2,-3.255188465E-3,4.570007324E-2,9.053205963E-2
8.479379794E0,6.851053238E-2,-5.752414465E-3,4.809236526E-2,8.390267526E-2
8.487626871E0,1.093912125E-1,-1.288914680E-2,6.223011017E-2,1.265114781E-1
8.495832794E0,9.050989151E-2,-2.710589767E-2,8.582258224E-2,1.276412385E-1
8.504039332E0,1.026730537E-1,-1.985284686E-2,1.382484436E-1,1.733450999E-1
8.512271486E0,1.290903091E-1,-2.946269512E-2,1.381487846E-1,1.913568525E-1
8.520480063E0,1.074786186E-1,-2.477568388E-2,1.238698959E-1,1.658590941E-1
8.528721986E0,7.869815826E-2,-1.285010576E-2,1.191453934E-1,1.433671863E-1
8.536930793E0,6.431865692E-2,-8.194684982E-3,8.086299896E-2,1.036478031E-1
8.545138563E0,7.130813599E-2,-1.089721918E-2,7.872486115E-2,1.067764178E-1
8.553369870E0,6.165790558E-2,-3.013503551E-2,5.966806412E-2,9.094006577E-2
8.561576332E0,9.273052216E-2,-3.007569909E-2,6.930685043E-2,1.196116087E-1
8.569815640E0,1.119623184E-1,-2.031680942E-2,5.004835129E-2,1.243107838E-1
8.578023409E0,1.096401215E-1,-2.973419428E-2,7.628631592E-2,1.368381545E-1
8.586230293E0,1.263999939E-1,-8.045643568E-3,9.064292908E-2,1.557492582E-1
8.594459947E0,1.095261574E-1,-7.892072201E-3,9.556961060E-2,1.455740857E-1
8.602665447E0,8.801841736E-2,-8.011877537E-3,8.115768433E-2,1.199916735E-1
8.610876524E0,7.611989975E-2,-1.269420981E-2,7.388019562E-2,1.068347575E-1
8.619082755E0,6.668138504E-2,-7.944971323E-3,7.370710373E-2,9.971091625E-2
8.627289947E0,6.921195984E-2,-7.878333330E-3,8.071470261E-2,1.066171972E-1
8.635519716E0,6.947708130E-2,4.177004099E-3,9.474420547E-2,1.175626499E-1
8.643725485E0,7.445049286E-2,-1.983210444E-2,9.690666199E-2,1.238026227E-1
8.651996755E0,1.033716202E-1,-7.749885321E-3,1.229982376E-1,1.608549627E-1
8.660205639E0,9.871816635E-2,-7.588118315E-3,1.156377792E-1,1.522332155E-1
8.668414908E0,7.965707779E-2,-2.842664719E-3,1.107354164E-1,1.364392291E-1
8.676647101E0,8.449029922E-2,1.399067044E-2,7.955121994E-2,1.168877501E-1
8.684854754E0,8.215570450E-2,6.930381060E-3,7.228612900E-2,1.096488687E-1
8.693092024E0,7.502746582E-2,1.684972644E-2,6.980943680E-2,1.038575533E-1
8.701298024E0,8.225631714E-2,-1.405027509E-2,8.171272278E-2,1.167924698E-1
8.709504870E0,1.062722206E-1,-3.035011888E-2,8.638763428E-2,1.402773608E-1
8.717735600E0,1.134600639E-1,-1.543474197E-2,8.396196365E-2,1.419895373E-1
8.725943524E0,1.134448051E-1,-2.710983157E-2,9.354496002E-2,1.495169767E-1
8.734192254E0,1.205177307E-1,-2.440539002E-2,1.032443047E-1,1.605600602E-1
8.742399985E0,1.132340431E-1,-1.239636540E-2,1.009764671E-1,1.522230775E-1
8.750607023E0,1.058869362E-1,-9.909957647E-3,1.035737991E-1,1.484512795E-1
8.758837639E0,8.175706863E-2,-2.640196681E-2,9.661626816E-2,1.292903144E-1
8.767043754E0,8.393573761E-2,-3.335368633E-2,7.772254944E-2,1.191573377E-1
8.775255716E0,9.335803986E-2,-2.852642536E-2,7.552146912E-2,1.234219302E-1
8.783462023E0,9.794044495E-2,-5.470293760E-2,8.774614334E-2,1.424223571E-1
8.791667716E0,1.146001816E-1,-2.327829599E-2,8.307027817E-2,1.434425035E-1
8.799898677E0,1.024727821E-1,-2.312457561E-2,9.283685684E-2,1.401930778E-1
8.808106216E0,1.142520905E-1,-6.328016520E-3,9.546995163E-2,1.490238089E-1
8.816346408E0,1.212368011E-1,-6.209939718E-3,8.374357224E-2,1.474785110E-1
8.824552946E0,1.018815041E-1,1.087933779E-3,7.920408249E-2,1.290515833E-1
8.832759215E0,9.940671921E-2,-2.285349369E-2,8.169984818E-2,1.306860482E-1
8.840989408E0,8.023452759E-2,3.483444452E-3,7.932901382E-2,1.128840389E-1
8.849196715E0,8.261442184E-2,-8.598595858E-3,7.695817947E-2,1.132326805E-1
8.857436138E0,8.493041992E-2,-1.535385847E-3,5.790758133E-2,1.028047743E-1
8.865643600E0,6.821441650E-2,-1.337313652E-2,8.418321609E-2,1.091735374E-1
8.873850446E0,9.223604202E-2,-1.358121634E-3,9.605360031E-2,1.331751706E-1
8.882079638E0,9.461307526E-2,-1.350253820E-3,8.410072327E-2,1.265953745E-1
8.890285984E0,9.451484680E-2,-1.808205247E-2,9.619569778E-2,1.360647977E-1
8.898556831E0,9.941625595E-2,-2.511486411E-2,8.407545090E-2,1.326010173E-1
8.906764946E0,9.938097000E-2,-3.694294393E-2,8.890247345E-2,1.383654874E-1
8.914972907E0,9.216070175E-2,-3.346383572E-3,8.655214310E-2,1.264755577E-1
8.923203946E0,8.757257462E-2,3.946691751E-3,8.629417419E-2,1.230090106E-1
8.931411561E0,6.133031845E-2,-3.660334647E-2,8.617019653E-2,1.119219179E-1
8.939625830E0,8.543205261E-2,-1.731032133E-2,9.793424606E-2,1.311083498E-1
8.947832407E0,1.141643524E-1,-7.674187422E-3,1.027159691E-1,1.537626834E-1
8.956038984E0,1.285200119E-1,4.409343004E-3,9.793519974E-2,1.616420091E-1
8.964270830E0,1.189670563E-1,-3.617079556E-2,9.789991379E-2,1.582589020E-1
8.972477984E0,1.118345261E-1,-2.170053124E-2,7.867908478E-2,1.384495311E-1
8.980725330E0,1.118493080E-1,-4.081232846E-2,9.781169891E-2,1.540877747E-1
8.988930330E0,9.741067886E-2,-3.608854115E-2,7.396459579E-2,1.275224866E-1
8.997135869E0,9.733629227E-2,-2.409750223E-2,7.645225525E-2,1.260951654E-1
9.005366138E0,9.501361847E-2,4.485607147E-3,6.918525696E-2,1.176193358E-1
9.013572253E0,1.071515083E-1,-7.653564215E-3,9.771299362E-2,1.452165690E-1
9.021808445E0,1.311941147E-1,6.442308426E-3,8.323335648E-2,1.555030247E-1
9.030015061E0,1.144089699E-1,1.104015112E-2,8.566808701E-2,1.433538226E-1
9.038221176E0,1.359000206E-1,-1.099818945E-2,8.336782455E-2,1.598122960E-1
9.046450138E0,1.239628792E-1,-2.338030934E-2,8.334255219E-2,1.511933044E-1
9.054653561E0,8.305549622E-2,1.364946365E-4,7.404518127E-2,1.112695958E-1
9.062889099E0,5.194234848E-2,-1.450973749E-2,6.207180023E-2,8.222802705E-2
9.071093561E0,4.714345932E-2,-7.553189993E-3,6.688356400E-2,8.217644169E-2
9.079298176E0,5.428600311E-2,8.907526731E-3,6.455373764E-2,8.481449882E-2
9.087528638E0,6.878852844E-2,-7.789611816E-3,8.113718033E-2,1.066573098E-1
9.095734022E0,8.344936371E-2,-7.722109556E-3,1.118860245E-1,1.397923809E-1
9.103946753E0,1.291122437E-1,1.949220896E-3,1.164522171E-1,1.738818271E-1
9.112152907E0,1.244087219E-1,2.089381218E-3,1.307048798E-1,1.804595833E-1
9.120359368E0,1.100158691E-1,4.371196032E-3,1.259565353E-1,1.672950914E-1
9.128590099E0,9.076833725E-2,6.808221340E-3,1.045246124E-1,1.386024442E-1
9.136796022E0,6.192827225E-2,-7.466226816E-3,9.029245377E-2,1.097432579E-1
9.145065483E0,5.222940445E-2,-1.002570987E-2,7.608938217E-2,9.283328943E-2
9.153272368E0,4.731035233E-2,-1.229861379E-2,6.667089462E-2,8.267123761E-2
9.161478060E0,6.884384155E-2,-2.143019438E-2,7.385349274E-2,1.032136916E-1
9.169706253E0,9.277677536E-2,-3.072422743E-2,8.582305908E-2,1.300657744E-1
9.177910868E0,1.358704567E-1,-1.104992628E-2,1.049547195E-1,1.720417828E-1
9.186147599E0,1.190543175E-1,-2.999311686E-2,9.783506393E-2,1.569879527E-1
9.194355099E0,1.142148972E-1,-3.500401974E-3,1.218342781E-1,1.670355856E-1
9.202562791E0,9.981822968E-2,1.088669896E-2,8.356475830E-2,1.306340998E-1
9.210792791E0,7.578849792E-2,-1.127690077E-3,8.367824554E-2,1.129035734E-1
9.219000252E0,7.085418701E-2,3.689646721E-3,7.907199860E-2,1.062370475E-1
9.227249483E0,6.597805023E-2,-9.184181690E-4,7.917356491E-2,1.030650279E-1
9.235455522E0,1.019148827E-1,-3.050625324E-3,7.673978806E-2,1.276124786E-1
9.243660406E0,9.468889236E-2,-7.578462362E-3,8.875274658E-2,1.300018056E-1
9.251890829E0,1.089525223E-1,2.044230700E-3,1.056380272E-1,1.517702994E-1
9.260096521E0,9.936761856E-2,2.102822065E-3,8.649206161E-2,1.317544011E-1
9.268308175E0,1.015748978E-1,-1.204642653E-2,1.082663536E-1,1.489435449E-1
9.276515637E0,9.423685074E-2,-9.441465139E-3,8.211517334E-2,1.253500179E-1
9.284721483E0,8.456039429E-2,-4.628539085E-3,7.026910782E-2,1.100437693E-1
9.292951252E0,6.767272949E-2,5.005985498E-3,8.240079880E-2,1.067452568E-1
9.301155060E0,6.780815125E-2,2.841204405E-3,6.546020508E-2,9.429239771E-2
9.309393291E0,1.038818359E-1,-1.597088575E-2,7.960748672E-2,1.318478554E-1
9.317599714E0,1.254711151E-1,-4.452551901E-2,8.194208145E-2,1.563330652E-1
9.325805714E0,1.136364937E-1,-2.033200860E-2,1.080951691E-1,1.581493245E-1
9.334035252E0,1.328349113E-1,-3.917758167E-2,1.176018715E-1,1.816870847E-1
9.342241713E0,1.327900887E-1,-1.757863164E-2,1.008968353E-1,1.676973086E-1
9.350481329E0,1.087121964E-1,-1.759192348E-2,1.010675430E-1,1.494739632E-1
9.358688098E0,8.233642578E-2,-3.672726452E-2,8.196306229E-2,1.218446657E-1
9.366893906E0,6.796598434E-2,-1.985666156E-2,7.478284836E-2,1.029860983E-1
9.375123983E0,9.662437439E-2,-5.500197411E-3,6.290197372E-2,1.154260811E-1
9.383331559E0,1.132955551E-1,-1.477673650E-2,6.300020218E-2,1.304732165E-1
9.391604829E0,1.108994484E-1,-1.220205426E-2,6.299543381E-2,1.281249486E-1
9.399813290E0,1.180191040E-1,-1.188713312E-2,8.939695358E-2,1.485315729E-1
9.408021444E0,1.227350235E-1,-1.873350143E-2,7.510757446E-2,1.451067807E-1
9.416251136E0,9.403276443E-2,-2.826118469E-2,8.464765549E-2,1.296382695E-1
9.424457752E0,1.036114693E-1,1.245614886E-2,8.943414688E-2,1.374371087E-1
9.432672444E0,1.085195541E-1,-6.828218699E-3,7.252788544E-2,1.307035285E-1
9.440879098E0,9.668970108E-2,-6.717175245E-3,7.473897934E-2,1.223925397E-1
9.449086482E0,9.447050095E-2,-2.089256048E-2,6.972217560E-2,1.192575214E-1
9.457318598E0,1.112298965E-1,-6.655067205E-3,9.127569199E-2,1.440403824E-1
9.465525636E0,1.328597069E-1,2.918660641E-3,8.877849579E-2,1.598181517E-1
9.473774751E0,1.017918587E-1,-6.659150124E-3,8.391904831E-2,1.320921400E-1
9.481983136E0,9.229898453E-2,-1.384076476E-2,8.381223679E-2,1.254398675E-1
9.490192444E0,8.514451981E-2,1.019451022E-2,9.334945679E-2,1.267581886E-1
9.498426328E0,1.020207405E-1,-2.318799496E-2,9.319639206E-2,1.401123909E-1
9.506633982E0,6.857538223E-2,-3.282250464E-2,8.352947235E-2,1.129472116E-1
9.514873636E0,9.979963303E-2,-2.555441856E-2,8.100652695E-2,1.310536244E-1
9.523080367E0,7.602262497E-2,-2.299654484E-2,9.754991531E-2,1.257945411E-1
9.531287713E0,9.304904938E-2,-2.033653855E-2,1.019921303E-1,1.395496149E-1
9.539520328E0,1.027965546E-1,5.733728409E-3,9.221076965E-2,1.382129998E-1
9.547729328E0,9.570360184E-2,-1.824483275E-2,1.112532616E-1,1.478828642E-1
9.555970290E0,1.196656227E-1,-1.336276531E-2,8.967447281E-2,1.501330604E-1
9.564179443E0,1.028952599E-1,-2.076879144E-2,7.772779465E-2,1.306154174E-1
9.572387674E0,1.028466225E-1,-2.797111869E-2,8.257770538E-2,1.348291091E-1
9.580621443E0,1.028337479E-1,-3.992839158E-2,8.019971848E-2,1.363856701E-1
9.588829174E0,1.028251648E-1,-4.501242936E-2,8.501195908E-2,1.408054207E-1
9.597043328E0,1.075963974E-1,-2.834448218E-2,8.264350891E-2,1.386013852E-1
9.605249136E0,1.123099327E-1,4.863083363E-3,7.796430588E-2,1.368049837E-1
9.613455328E0,1.242561340E-1,1.992344856E-3,7.801532745E-2,1.467308679E-1
9.621683828E0,1.098632812E-1,-3.107905388E-3,8.524608612E-2,1.390916778E-1
9.629890982E0,1.192979813E-1,1.363843679E-3,9.022855759E-2,1.495829569E-1
9.638162674E0,1.166996956E-1,-1.441121101E-3,9.529018402E-2,1.506688918E-1
9.646370174E0,1.093530655E-1,7.472813129E-3,8.355760574E-2,1.378252856E-1
9.654577712E0,7.342720032E-2,2.145797014E-3,7.641458511E-2,1.059969198E-1
9.662810597E0,5.174684525E-2,-7.814615965E-3,8.138799667E-2,9.676161542E-2
9.671017481E0,4.928541183E-2,1.824802160E-2,6.711864471E-2,8.524643441E-2
9.679257058E0,6.848621368E-2,8.587658405E-3,5.509138107E-2,8.831290738E-2
9.687466174E0,8.294439316E-2,3.730416298E-3,6.455421448E-2,1.051709797E-1
9.695674174E0,1.188888550E-1,8.480250835E-3,1.195826530E-1,1.688386372E-1
9.703904520E0,1.069340706E-1,8.519560099E-3,1.243491173E-1,1.642260068E-1
9.712111443E0,1.236281395E-1,6.091445684E-3,1.292214394E-1,1.789391041E-1
9.720359212E0,1.043214798E-1,1.558071375E-2,1.102643013E-1,1.525907793E-1
9.728564981E0,6.114006042E-2,-3.679692745E-3,9.122467041E-2,1.098798781E-1
9.736770750E0,7.774448395E-2,1.208066940E-3,6.986713409E-2,1.045326774E-1
9.745000827E0,5.357933044E-2,-5.582600832E-3,5.337285995E-2,7.583252773E-2
9.753207212E0,6.300926208E-2,-9.930878878E-3,5.353641510E-2,8.327627036E-2
9.761419212E0,8.210277557E-2,-1.645925641E-2,5.358314514E-2,9.941290823E-2
9.769626020E0,1.180496216E-1,-1.350802183E-2,8.224630356E-2,1.445082498E-1
9.777832212E0,1.108994484E-1,-1.775500178E-2,9.175968170E-2,1.450302276E-1
9.786063712E0,1.203174591E-1,-7.686883211E-3,8.714866638E-2,1.487624589E-1
9.794270673E0,9.135389328E-2,-1.694530249E-2,1.065831184E-1,1.413953261E-1
9.802509096E0,9.600734711E-2,-3.360854089E-2,8.759546280E-2,1.342382577E-1
9.810714750E0,1.054239273E-1,-2.155950665E-2,9.497547150E-2,1.435247608E-1
9.818919481E0,5.490350723E-2,-1.919057965E-2,6.415843964E-2,8.659664445E-2
9.827150173E0,6.428050995E-2,-2.629002929E-2,9.553098679E-2,1.181072353E-1
9.835356212E0,7.851123810E-2,-3.095190227E-2,8.132934570E-2,1.172028039E-1
9.843595135E0,1.022825241E-1,-2.342808247E-2,9.110784531E-2,1.389648490E-1
9.851802596E0,1.165933609E-1,-2.568769455E-2,9.595823288E-2,1.531726213E-1
9.860009904E0,1.139674187E-1,-3.289251029E-2,9.146404266E-2,1.497870517E-1
9.868240904E0,9.939098358E-2,-4.480315745E-2,7.017898560E-2,1.296571655E-1
9.876448442E0,9.919834137E-2,-1.610797644E-2,6.084775925E-2,1.174828823E-1
9.884718942E0,1.254081726E-1,-2.078998089E-2,5.860710144E-2,1.399793749E-1
9.892924981E0,1.037902832E-1,-4.001617432E-3,5.629920959E-2,1.181441358E-1
9.901129865E0,1.084766388E-1,-1.606106758E-2,7.079887390E-2,1.305282330E-1
9.909359250E0,1.133022308E-1,-2.796235681E-2,5.877637863E-2,1.306673318E-1
9.917565134E0,1.373329163E-1,-2.771055698E-2,8.259534836E-2,1.626351636E-1
9.925777827E0,1.302843094E-1,-4.672449827E-2,7.284355164E-2,1.564076821E-1
9.933984442E0,1.375756264E-1,-2.528670430E-2,9.665298462E-2,1.700243213E-1
9.942191057E0,1.424059868E-1,-3.252921999E-2,9.181451797E-2,1.725326663E-1
9.950424519E0,1.041164398E-1,-2.809679508E-2,7.265520096E-2,1.300324620E-1
9.958632250E0,8.267736435E-2,-2.341797948E-2,6.533908844E-2,1.079497328E-1
9.966881865E0,1.116328239E-1,-1.866304874E-2,6.266212463E-2,1.293705478E-1
9.975088711E0,9.755563736E-2,-4.454195499E-3,6.230783463E-2,1.158413074E-1
9.983295942E0,1.050848961E-1,-1.156973839E-2,7.383823395E-2,1.289526232E-1
9.991526749E0,1.101317406E-1,-6.808787584E-3,6.872367859E-2,1.299934763E-1
9.999733288E0,9.847211838E-2,-2.038210630E-3,1.114277840E-1,1.487180670E-1
1.000797287E1,9.866619110E-2,-4.370599985E-3,1.039972305E-1,1.434208610E-1
1.001617979E1,8.932924271E-2,-1.640126109E-2,1.013059616E-1,1.360573880E-1
1.002438736E1,9.430408478E-2,-9.343594313E-3,1.106514931E-1,1.456856756E-1
1.003261921E1,6.814002991E-2,-2.323180437E-3,1.008648872E-1,1.217464017E-1
1.004082637E1,6.595039368E-2,-1.351535320E-4,8.864402771E-2,1.104863627E-1
1.004906571E1,7.573938370E-2,-2.575397491E-3,8.838129044E-2,1.164231052E-1
1.005727171E1,7.116746902E-2,1.171234250E-2,9.768772125E-2,1.214284913E-1
1.006547910E1,6.899690628E-2,-5.111336708E-3,9.261989594E-2,1.156077158E-1
1.007370944E1,6.680917740E-2,-1.488354802E-2,9.715604782E-2,1.188456302E-1
1.008191667E1,7.405138016E-2,-7.864594460E-3,9.230089188E-2,1.185955876E-1
1.009012948E1,9.809780121E-2,-2.490180731E-2,1.161231995E-1,1.540385538E-1
1.009833729E1,1.029577255E-1,-2.485212684E-2,9.927177429E-2,1.451647568E-1
1.010654344E1,1.150240898E-1,-5.915790796E-3,9.916210175E-2,1.519824340E-1
1.011478144E1,9.344100952E-2,-1.395672560E-3,7.766962051E-2,1.215143618E-1
1.012298879E1,9.808635712E-2,8.008092642E-3,7.546329498E-2,1.240152083E-1
1.013125533E1,6.690835953E-2,3.145158291E-3,8.271598816E-2,1.064356862E-1
1.013946286E1,6.204462051E-2,-4.218786955E-3,7.803106308E-2,9.978065896E-2
1.014766940E1,6.443738937E-2,3.096073866E-3,9.478616714E-2,1.146567935E-1
1.015589944E1,7.892513275E-2,-1.143515110E-2,9.463882446E-2,1.237596314E-1
1.016410471E1,1.052527428E-1,-2.087050676E-2,8.746242523E-2,1.384319101E-1
1.017234406E1,1.147518158E-1,-4.325747490E-3,9.475040436E-2,1.488768970E-1
1.018055129E1,1.266722679E-1,-2.582299709E-2,9.960031509E-2,1.631959356E-1
1.018875940E1,1.266489029E-1,-2.823138237E-2,9.963083267E-2,1.635947993E-1
1.019699229E1,1.098623276E-1,-3.300283849E-2,7.332944870E-2,1.361474437E-1
1.020520048E1,9.294891357E-2,-2.346387506E-2,7.591915131E-2,1.222856145E-1
1.021345013E1,9.516572952E-2,-3.321267664E-2,9.051561356E-2,1.354720424E-1
1.022165763E1,8.307409286E-2,3.505647182E-4,8.587694168E-2,1.194833751E-1
1.022986498E1,8.555841446E-2,-1.136940718E-2,7.617521286E-2,1.151180644E-1
1.023809613E1,9.985160828E-2,-1.622319221E-3,6.668138504E-2,1.200807341E-1
1.024630456E1,1.286211014E-1,-8.700013161E-3,7.859849930E-2,1.509860988E-1
1.025451817E1,1.406044960E-1,-3.959387541E-3,8.816242218E-2,1.660057641E-1
1.026272575E1,1.189742088E-1,-6.486564875E-3,9.066677094E-2,1.497244177E-1
1.027093310E1,1.069798470E-1,-1.985043287E-3,8.831262589E-2,1.387362532E-1
1.027916452E1,9.017086029E-2,-2.058833838E-3,8.598518372E-2,1.246133005E-1
1.028737113E1,7.572937012E-2,4.965364933E-3,7.890462875E-2,1.094784581E-1
1.029561175E1,6.143903732E-2,-1.185733080E-2,7.163095474E-2,9.511227722E-2
1.030381721E1,6.878662109E-2,-2.207428217E-3,7.141923904E-2,9.918255737E-2
1.031202398E1,7.855939865E-2,-2.123567462E-2,7.356357574E-2,1.097001945E-1
1.032025483E1,1.049652100E-1,-2.112725377E-2,9.980630875E-2,1.463740258E-1
1.032845925E1,1.291046143E-1,-1.623290777E-2,1.139178276E-1,1.729415513E-1
1.033669536E1,1.218261719E-1,-1.404079795E-2,1.212301254E-1,1.724398547E-1
1.034489929E1,1.169400215E-1,-1.647520065E-2,1.141715050E-1,1.642605656E-1
1.035310421E1,9.515190125E-2,-7.270127535E-3,9.294462204E-2,1.332120183E-1
1.036133502E1,9.256458282E-2,-2.556979656E-3,7.164287567E-2,1.170787845E-1
1.036954036E1,4.204130173E-2,-3.834302723E-2,5.758047104E-2,8.095164874E-2
1.037780929E1,8.257722855E-2,-1.916339993E-2,3.624057770E-2,9.219335141E-2
1.038601409E1,8.004856110E-2,-3.594999015E-2,5.795907974E-2,1.051638191E-1
1.039421879E1,1.182641983E-1,-3.824950755E-2,6.046390533E-2,1.382220289E-1
1.040244790E1,1.396803856E-1,-3.089138865E-2,7.498836517E-2,1.615182433E-1
1.041065394E1,1.444106102E-1,-3.086495399E-2,8.224201202E-2,1.690290456E-1
1.041886567E1,1.420173645E-1,-9.337127209E-3,8.463525772E-2,1.655875618E-1
1.042707233E1,1.371335983E-1,5.581974983E-5,5.842924118E-2,1.490624135E-1
1.043527944E1,9.396791458E-2,-3.125363588E-2,6.331348419E-2,1.175387426E-1
1.044351090E1,7.481813431E-2,-5.116611719E-3,6.571102142E-2,9.970893277E-2
1.045171836E1,7.498884201E-2,-5.372911692E-3,7.508420944E-2,1.062536264E-1
1.045996825E1,9.186840057E-2,1.826497912E-2,7.973480225E-2,1.230083378E-1
1.046817648E1,1.016321182E-1,2.035248280E-2,8.430242538E-2,1.336046778E-1
1.047638509E1,1.209936142E-1,-6.255835295E-3,7.686853409E-2,1.434829665E-1
1.048461725E1,1.258711815E-1,1.977717876E-2,7.677078247E-2,1.487563248E-1
1.049282598E1,1.237201691E-1,-4.353940487E-3,9.323263168E-2,1.549772907E-1
1.050106494E1,9.048366547E-2,1.703149080E-2,7.372951508E-2,1.179551050E-1
1.050927240E1,7.154989243E-2,1.211202145E-2,6.388139725E-2,9.667947602E-2
1.051747771E1,8.613586426E-2,2.312213182E-3,8.276653290E-2,1.194781671E-1
1.052570875E1,7.456636429E-2,-7.486999035E-3,7.269477844E-2,1.044065546E-1
1.053391529E1,9.642314911E-2,-7.572621107E-3,7.709646225E-2,1.236876419E-1
1.054215367E1,1.062788963E-1,-2.198430896E-2,9.111309052E-2,1.417043010E-1
1.055035729E1,1.090059280E-1,-2.655759454E-2,1.050491333E-1,1.536974905E-1
1.055856282E1,1.307425499E-1,-1.709377766E-2,1.120004654E-1,1.730026469E-1
1.056679344E1,1.021499634E-1,-1.026228070E-2,1.166291237E-1,1.553778682E-1
1.057499982E1,9.262657166E-2,-1.791882515E-2,9.503650665E-2,1.339130452E-1
1.058321290E1,8.783245087E-2,-8.638918400E-3,8.308553696E-2,1.212121149E-1
1.059141994E1,9.512996674E-2,-1.625353098E-2,8.296060562E-2,1.272648810E-1
1.059962636E1,9.272623062E-2,2.120435238E-4,6.383228302E-2,1.125733501E-1
1.060785686E1,9.992122650E-2,1.200139523E-2,6.143093109E-2,1.179069306E-1
1.061606559E1,9.511184692E-2,1.176115870E-2,4.949760437E-2,1.078638082E-1
1.062433956E1,9.993505478E-2,-1.208192110E-2,9.733295441E-2,1.400238980E-1
1.063254890E1,8.321714401E-2,6.939888000E-3,9.010314941E-2,1.228488203E-1
1.064075706E1,9.270954132E-2,1.420518756E-2,9.020614624E-2,1.301306852E-1
1.064898944E1,9.741592407E-2,-2.691745758E-4,9.989261627E-2,1.395294575E-1
1.065719867E1,1.045408249E-1,2.123862505E-3,8.320474625E-2,1.336275595E-1
1.066543982E1,8.060264587E-2,1.664909720E-2,8.319234848E-2,1.170254067E-1
1.067364940E1,6.848096848E-2,-2.688169479E-5,7.619619370E-2,1.024475656E-1
1.068185809E1,6.116294861E-2,-9.341806173E-3,8.593082428E-2,1.058880644E-1
1.069009021E1,7.780694962E-2,-9.270668030E-3,1.148023605E-1,1.389944196E-1
1.069829844E1,8.016252518E-2,-1.125028729E-2,1.220154762E-1,1.464253252E-1
1.070654963E1,8.712196350E-2,-1.794761419E-2,9.833335876E-2,1.325963907E-1
1.071475902E1,9.414672852E-2,-2.259337902E-2,8.655548096E-2,1.298688513E-1
1.072296794E1,1.107301712E-1,-1.293516159E-2,7.480239868E-2,1.342530747E-1
1.073120055E1,1.055321693E-1,-3.295689821E-3,8.010292053E-2,1.325306690E-1
1.073940959E1,1.076650620E-1,-1.509615779E-2,7.324218750E-2,1.310880528E-1
1.074762463E1,1.051573753E-1,-1.749840379E-2,7.578134537E-2,1.307940367E-1
1.075583194E1,1.144604683E-1,-7.804661989E-3,7.612037659E-2,1.376823274E-1
1.076404025E1,8.570432663E-2,-1.721200347E-2,6.417369843E-2,1.084423729E-1
1.077227186E1,8.808994293E-2,-2.470910549E-4,3.783988953E-2,9.587364778E-2
1.078047821E1,1.193799973E-1,-2.401351929E-3,4.480266571E-2,1.275328549E-1
1.078871767E1,9.066295624E-2,-2.104848623E-2,6.152248383E-2,1.115698276E-1
1.079692471E1,1.051993370E-1,-3.980308771E-3,9.002399445E-2,1.385173741E-1
1.080513259E1,1.077027321E-1,1.132220030E-3,9.705495834E-2,1.449856040E-1
1.081336513E1,8.390712738E-2,-1.544833183E-2,8.967971802E-2,1.237800824E-1
1.082157390E1,1.199283600E-1,-1.278948784E-2,7.516622543E-2,1.421138416E-1
1.082981417E1,9.841871262E-2,-2.677664161E-2,6.552314758E-2,1.212291813E-1
1.083802182E1,1.032242775E-1,-2.425575256E-2,8.704471588E-2,1.371873739E-1
1.084622790E1,1.008996964E-1,-2.651697397E-2,6.300878525E-2,1.218770103E-1
1.085447444E1,1.056694984E-1,-2.367869020E-2,7.019567490E-2,1.290509823E-1
1.086268067E1,1.128869057E-1,-2.075022459E-2,7.731008530E-2,1.383866850E-1
1.087095040E1,1.321353912E-1,-1.824891567E-2,7.239770889E-2,1.517702632E-1
1.087915721E1,1.561069489E-1,-2.762946486E-2,1.058697701E-1,1.906336146E-1
1.088736494E1,1.417102814E-1,-2.991449833E-2,9.872293472E-2,1.752794880E-1
1.089559675E1,1.248335838E-1,5.757689476E-3,6.775808334E-2,1.421539043E-1
1.090380471E1,1.127462387E-1,-2.298209071E-2,8.705806732E-2,1.442878994E-1
1.091201778E1,6.950664520E-2,-1.586675644E-3,4.175615311E-2,8.110035505E-2
1.092022486E1,5.261278152E-2,-1.544445753E-3,4.910421371E-2,7.198412253E-2
1.092843282E1,4.791498184E-2,-1.670271158E-3,5.857229233E-2,7.569246144E-2
1.093666613E1,6.955003738E-2,5.694568157E-3,6.324291229E-2,9.417697044E-2
1.094487463E1,9.610176086E-2,-2.037644386E-2,9.169054031E-2,1.343796975E-1
1.095312517E1,1.394057274E-1,-1.777750254E-2,1.057844162E-1,1.758986616E-1
1.096133294E1,1.252250671E-1,-1.270663738E-2,1.246938705E-1,1.771760069E-1
1.096953948E1,1.322879791E-1,1.145312190E-2,1.248354912E-1,1.822503314E-1
1.097777125E1,8.681011200E-2,-3.024160862E-3,1.224298477E-1,1.501139857E-1
1.098597809E1,9.384965897E-2,-1.257073879E-2,7.712030411E-2,1.221201182E-1
1.099421732E1,6.725072861E-2,-5.908012390E-4,7.026815414E-2,9.726573411E-2
1.100242386E1,5.509376526E-2,-7.392585278E-3,3.217697144E-2,6.422873795E-2
1.101063178E1,5.751276016E-2,-1.426497102E-2,3.692102432E-2,6.981668151E-2
1.101886352E1,8.159589767E-2,-2.560338378E-2,4.868745804E-2,9.840676983E-2
1.102707263E1,1.319828033E-1,-2.994914353E-2,7.486677170E-2,1.546655911E-1
1.103531294E1,1.392440796E-1,-2.244636416E-2,9.630012512E-2,1.707819284E-1
1.104352294E1,1.417441368E-1,-4.369680583E-2,1.129145622E-1,1.864148855E-1
1.105173094E1,1.203660965E-1,-1.718348265E-2,9.593343735E-2,1.548757362E-1
1.105996386E1,1.060299873E-1,-2.221196890E-2,9.111833572E-2,1.415566349E-1
1.106817363E1,8.459663391E-2,-2.218171954E-2,6.224346161E-2,1.073446210E-1
1.107638971E1,6.314229965E-2,-3.142237663E-3,6.691837311E-2,9.205917837E-2
1.108459828E1,8.487749100E-2,-3.249347210E-3,7.387113571E-2,1.125686076E-1
1.109280778E1,7.785177231E-2,-2.230840921E-2,8.563899994E-2,1.178668820E-1
1.110104190E1,1.090106964E-1,-1.985722780E-2,8.319997787E-2,1.385636235E-1
1.110925048E1,1.068358421E-1,6.453990936E-3,1.044716835E-1,1.495656505E-1
1.111752263E1,1.163578033E-1,-7.697939873E-4,9.975433350E-2,1.532666240E-1
1.112573167E1,1.163945198E-1,2.050152421E-2,8.535432816E-2,1.457853150E-1
1.113393913E1,7.788610458E-2,1.159846783E-3,9.040451050E-2,1.193338429E-1
1.114217271E1,8.506870270E-2,1.064458489E-2,6.407308578E-2,1.070296767E-1
1.115038028E1,6.815767288E-2,8.111566305E-3,6.187534332E-2,9.241116811E-2
1.115861828E1,8.724594116E-2,-8.501440287E-3,6.673955917E-2,1.101739420E-1
1.116682567E1,9.203290939E-2,3.538399935E-3,6.195020676E-2,1.109973189E-1
1.117503540E1,1.231241226E-1,-1.793256402E-2,1.026902199E-1,1.613270209E-1
1.118327082E1,1.351246834E-1,-2.970643342E-2,9.306669235E-2,1.667410012E-1
1.119148082E1,1.542792320E-1,-3.328561783E-3,1.002478600E-1,1.840184615E-1
1.119972867E1,1.230654716E-1,-3.366976976E-3,9.317874908E-2,1.543979473E-1
1.120793705E1,9.897661209E-2,3.692567348E-3,7.900476456E-2,1.266955312E-1
1.121614528E1,9.170770645E-2,3.591746092E-3,8.151102066E-2,1.227487293E-1
1.122438082E1,8.452939987E-2,8.194983006E-3,7.672452927E-2,1.144509964E-1
1.123258863E1,6.546926498E-2,-1.328328252E-2,6.224012375E-2,9.130445365E-2
1.124080436E1,6.786441803E-2,5.793213844E-3,7.421207428E-2,1.007301967E-1
1.124901201E1,8.941125870E-2,1.084008813E-2,7.659816742E-2,1.182334976E-1
1.125721963E1,1.228952408E-1,-7.922917604E-3,8.620071411E-2,1.503215751E-1
1.126545109E1,9.643077850E-2,1.149183512E-2,1.031088829E-1,1.416417984E-1
1.127365855E1,8.912229538E-2,-1.692995429E-2,1.008610725E-1,1.356553089E-1
1.128189905E1,1.033425331E-1,-2.346396446E-3,1.034288406E-1,1.462282798E-1
1.129010694E1,7.701539993E-2,-4.596382380E-3,8.904504776E-2,1.178198586E-1
1.129831586E1,7.448053360E-2,2.872943878E-3,7.963371277E-2,1.090739744E-1
1.130654548E1,1.078543663E-1,1.033025980E-2,8.219814301E-2,1.359993136E-1
1.131475190E1,1.006970406E-1,-8.699297905E-3,6.779575348E-2,1.217038863E-1
1.132299028E1,8.866071701E-2,-8.706182241E-3,6.308937073E-2,1.091640465E-1
1.133119774E1,1.053223610E-1,-1.318097115E-2,7.517051697E-2,1.300659231E-1
1.133940398E1,1.291956902E-1,-2.713994682E-2,7.523822784E-2,1.519503011E-1
1.134763624E1,1.291589737E-1,-3.161270916E-2,8.724355698E-2,1.590372349E-1
1.135584251E1,1.241455078E-1,-2.669586241E-2,7.554960251E-2,1.477583115E-1
1.136411213E1,1.288537979E-1,-2.899242938E-2,7.564735413E-2,1.522050734E-1
1.137231959E1,1.336379051E-1,-3.359423578E-2,6.367206573E-2,1.517952381E-1
1.138052744E1,1.312394142E-1,-1.447042823E-2,7.565069199E-2,1.521716279E-1
1.138875863E1,1.120781898E-1,-1.449102163E-2,6.847810745E-2,1.321391749E-1
1.139696694E1,1.216373444E-1,-2.411285043E-2,6.371450424E-2,1.394152472E-1
1.140518282E1,1.216435432E-1,-9.848922491E-3,5.413389206E-2,1.335089179E-1
1.141339167E1,8.582353592E-2,-3.372924030E-2,5.640792847E-2,1.080980821E-1
1.142159959E1,9.541797638E-2,-1.218056679E-2,7.554006577E-2,1.223080454E-1
1.142983340E1,1.195020676E-1,-2.431419492E-2,8.255100250E-2,1.472636827E-1
1.143804101E1,1.052889824E-1,-2.776026726E-3,9.193658829E-2,1.398063389E-1
1.144629044E1,1.222615242E-1,1.893281937E-3,7.251882553E-2,1.421634442E-1
1.145449917E1,1.056904793E-1,-7.516741753E-4,7.468748093E-2,1.294189408E-1
1.146270794E1,1.082372665E-1,-1.283770800E-2,7.210588455E-2,1.306880683E-1
1.147093986E1,9.636735916E-2,-1.056012511E-2,8.395385742E-2,1.282436522E-1
1.147914986E1,9.656906128E-2,-3.697057068E-2,9.806776047E-2,1.425120779E-1
1.148738928E1,9.429407120E-2,-1.555719972E-2,9.553098679E-2,1.351279681E-1
1.149559874E1,8.011293411E-2,-1.084244251E-2,9.051275253E-2,1.213597921E-1
1.150380674E1,8.036470413E-2,1.537933946E-2,9.259557724E-2,1.235675956E-1
1.151203874E1,8.779716492E-2,5.721896887E-3,9.228324890E-2,1.275040403E-1
1.152024667E1,1.167531013E-1,1.265299320E-2,9.201097488E-2,1.491891565E-1
1.152848728E1,1.048455238E-1,1.978898048E-2,9.432744980E-2,1.424143792E-1
1.153669613E1,1.024270058E-1,2.435511351E-2,9.436655045E-2,1.413842598E-1
1.154490624E1,6.876373291E-2,7.303595543E-3,9.456253052E-2,1.171489037E-1
1.155313894E1,4.954147339E-2,7.445782423E-3,9.703922272E-2,1.092080950E-1
1.156134497E1,4.229545593E-2,1.231732965E-2,7.077598572E-2,8.336583447E-2
1.156955690E1,4.933834076E-2,2.194380760E-2,7.573843002E-2,9.301673152E-2
1.157776224E1,5.885744095E-2,2.227261662E-2,6.143093109E-2,8.794331755E-2
1.158596913E1,9.945821762E-2,-8.456885815E-3,7.590627670E-2,1.254002345E-1
1.159420090E1,1.161513329E-1,-1.042583585E-2,1.118845940E-1,1.616106201E-1
1.160240805E1,1.184468269E-1,-2.187383175E-2,1.239566803E-1,1.728391562E-1
1.161067886E1,1.230525970E-1,9.561479092E-3,1.193852425E-1,1.717154613E-1
1.161888505E1,1.157107353E-1,-1.658070087E-2,8.605957031E-2,1.451555840E-1
1.162709355E1,9.387302399E-2,-9.269952774E-3,6.487035751E-2,1.144824875E-1
1.163532320E1,8.634662628E-2,-6.866693497E-3,5.093765259E-2,1.004864956E-1
1.164353040E1,8.621549606E-2,1.254996657E-2,2.954387665E-2,9.199703294E-2
1.165176886E1,9.560060501E-2,-1.106879115E-2,3.695392609E-2,1.030901861E-1
1.165997740E1,1.193885803E-1,-2.271160483E-2,5.389451981E-2,1.329438580E-1
1.166818555E1,1.384625435E-1,-1.985707879E-2,6.834030151E-2,1.556810083E-1
1.167641778E1,1.263685226E-1,-4.095247388E-2,7.565832138E-2,1.528734451E-1
1.168462671E1,1.573562622E-1,-4.068243504E-2,7.342481613E-2,1.783458926E-1
1.169287544E1,1.308417320E-1,-4.525732994E-2,7.842922211E-2,1.591192246E-1
1.170108455E1,1.139349937E-1,-1.400998235E-2,6.424140930E-2,1.315462697E-1
1.170929270E1,8.997488022E-2,-2.129265666E-2,5.469465256E-2,1.074260737E-1
1.171752597E1,5.162811279E-2,-2.371580899E-2,4.995679855E-2,7.565436767E-2
1.172573401E1,8.274793625E-2,5.293875933E-3,5.952787399E-2,1.020725911E-1
1.173394932E1,9.245491028E-2,-1.363778114E-2,8.568954468E-2,1.267935234E-1
1.174215659E1,1.141071320E-1,-8.755564690E-3,9.513235092E-2,1.488195608E-1
1.175036328E1,1.285772324E-1,-8.735537529E-3,9.739208221E-2,1.615352345E-1
1.175859501E1,1.117820740E-1,-4.001498222E-3,1.094098091E-1,1.564664513E-1
1.176680390E1,1.164994240E-1,-4.197448492E-3,7.838439941E-2,1.404772168E-1
1.177504497E1,1.044926643E-1,9.979844093E-3,8.561992645E-2,1.354587981E-1
1.178325459E1,9.018182755E-2,-4.567027092E-3,6.401252747E-2,1.106852449E-1
1.179146351E1,8.544492722E-2,2.596169710E-3,6.394672394E-2,1.067556049E-1
1.179969713E1,9.275245667E-2,1.930895448E-2,5.660867691E-2,1.103648325E-1
1.180790694E1,9.542083740E-2,5.021184683E-3,6.583738327E-2,1.160383968E-1
1.181614705E1,9.811067581E-2,-2.005934715E-3,9.418773651E-2,1.360185950E-1
1.182435628E1,1.151380539E-1,5.520671606E-3,1.105961800E-1,1.597459367E-1
1.183256536E1,1.249847412E-1,-1.366218925E-2,9.828615189E-2,1.595869938E-1
1.184079805E1,1.130142212E-1,-1.381561160E-2,1.006865501E-1,1.519896927E-1
1.184900794E1,1.105885506E-1,-3.312893212E-2,9.594345093E-2,1.501082924E-1
1.185728205E1,8.438062668E-2,-2.123466134E-2,8.620882034E-2,1.224865777E-1
1.186549086E1,9.392642975E-2,-6.729602814E-3,6.948328018E-2,1.170272959E-1
1.187369959E1,9.153366089E-2,3.809630871E-4,6.948423386E-2,1.149200373E-1
1.188193132E1,9.628963470E-2,-1.153203845E-2,5.994510651E-2,1.140091990E-1
1.189013890E1,9.634876251E-2,2.891212702E-3,7.423448563E-2,1.216643005E-1
1.189835293E1,1.035909653E-1,-1.858651638E-3,7.176303864E-2,1.260336320E-1
1.190655974E1,9.635162354E-2,-1.846006513E-2,1.029524803E-1,1.422097836E-1
1.191476732E1,1.178402901E-1,-3.931075335E-3,1.006255150E-1,1.550073598E-1
1.192299928E1,1.321430206E-1,-1.588571072E-2,7.676076889E-2,1.536435789E-1
1.193120636E1,9.853887558E-2,-1.133579016E-2,7.448577881E-2,1.240424983E-1
1.193945743E1,1.080765724E-1,-3.284092247E-2,5.777311325E-2,1.268731820E-1
1.194766613E1,9.603929520E-2,-2.102568746E-2,7.462120056E-2,1.234258860E-1
1.195587386E1,8.879756927E-2,-4.404246807E-3,7.709741592E-2,1.176792983E-1
1.196410563E1,1.031317711E-1,2.728998661E-3,8.192634583E-2,1.317404106E-1
1.197231213E1,1.175642014E-1,2.350956202E-3,8.185768127E-2,1.432743816E-1
1.198054986E1,1.103501320E-1,-5.054086447E-3,7.472419739E-2,1.333656669E-1
1.198875678E1,1.150684357E-1,-1.714986563E-2,7.481765747E-2,1.383204419E-1
1.199696424E1,1.175475121E-1,-2.214241028E-2,6.753873825E-2,1.373651524E-1
1.200519563E1,1.080155373E-1,-5.637139082E-3,5.073165894E-2,1.194689702E-1
1.201340305E1,1.008772850E-1,-1.294043660E-2,7.941293716E-2,1.290352515E-1
1.202164424E1,8.904600143E-2,-1.067775488E-2,6.966543198E-2,1.135626577E-1
1.202985205E1,1.035547256E-1,1.154154539E-3,8.385562897E-2,1.332541924E-1
1.203806020E1,7.966756821E-2,-6.048053503E-3,6.942272186E-2,1.058442945E-1
1.204629170E1,8.697128296E-2,1.298049092E-2,9.082221985E-2,1.264166635E-1
1.205450066E1,9.185457230E-2,3.326237202E-3,7.634115219E-2,1.194834626E-1
1.206271447E1,8.000469208E-2,-1.454144716E-3,1.025242805E-1,1.300541941E-1
1.207092216E1,8.494567871E-2,-1.563653350E-2,9.035301208E-2,1.249957451E-1
1.207913113E1,1.137104034E-1,1.058408618E-2,8.073806763E-2,1.398596235E-1
1.208736336E1,1.114101410E-1,-1.548230648E-3,8.062744141E-2,1.375332718E-1
1.209557120E1,8.759355545E-2,1.267814636E-2,8.765792847E-2,1.245683699E-1
1.210384505E1,1.044192314E-1,-2.094882727E-2,8.758020401E-2,1.378858999E-1
1.211205243E1,1.067266464E-1,-3.065730631E-2,7.572317123E-2,1.344040407E-1
1.212026051E1,1.067857742E-1,-3.547696769E-2,7.086133957E-2,1.329779916E-1
1.212849043E1,9.494256973E-2,-1.642668247E-2,9.225273132E-2,1.333960040E-1
1.213669601E1,7.824993134E-2,-1.645663381E-2,7.780456543E-2,1.115680194E-1
1.214493443E1,9.738016129E-2,-6.953775883E-3,8.502101898E-2,1.294597408E-1
1.215314309E1,1.165118217E-1,-1.424276829E-2,8.026456833E-2,1.421979676E-1
1.216135063E1,1.022405624E-1,-9.650766850E-3,6.339502335E-2,1.206863658E-1
1.216958393E1,1.310005188E-1,-1.687747240E-2,8.490657806E-2,1.570194638E-1
1.217779066E1,1.454868317E-1,2.023488283E-3,8.955383301E-2,1.708519877E-1
1.218603801E1,1.215438843E-1,1.791864634E-3,9.195947647E-2,1.524226751E-1
1.219424566E1,1.189689636E-1,1.344633102E-2,8.022928238E-2,1.441220173E-1
1.220245340E1,7.806110382E-2,8.579760790E-3,7.570409775E-2,1.090791393E-1
1.221068374E1,6.131410599E-2,-1.313686371E-3,7.809686661E-2,9.929887179E-2
1.221889259E1,4.213476181E-2,2.023306489E-2,4.939889908E-2,6.800710476E-2
1.222710786E1,7.568550110E-2,-5.988746881E-3,6.611299515E-2,1.006731756E-1
1.223531709E1,7.813644409E-2,3.854781389E-3,1.043372154E-1,1.304086568E-1
1.224352393E1,1.188955307E-1,-7.725626230E-3,1.042485237E-1,1.583148357E-1
1.225175555E1,1.334400177E-1,-1.700273156E-2,1.159796715E-1,1.776136690E-1
1.225996251E1,1.261696815E-1,2.065420151E-3,1.184887886E-1,1.730972199E-1
1.226820224E1,9.020948410E-2,-7.594704628E-3,9.700298309E-2,1.326838697E-1
1.227640862E1,6.607198715E-2,1.378199458E-2,8.049821854E-2,1.050495790E-1
1.228461447E1,7.064247131E-2,1.804292202E-3,4.246568680E-2,8.244360969E-2
1.229284501E1,5.614805222E-2,-3.663301468E-4,3.543615341E-2,6.639622681E-2
1.230105278E1,9.693002701E-2,-4.675298929E-3,5.207395554E-2,1.101316730E-1
1.230929270E1,1.041297913E-1,-1.620748639E-2,5.682182312E-2,1.197264199E-1
1.231750124E1,1.304898262E-1,-2.052211761E-2,7.353067398E-2,1.511803958E-1
1.232570959E1,1.567425728E-1,-3.692527115E-2,8.798408508E-2,1.835017956E-1
1.233394047E1,1.495609283E-1,-2.939240634E-2,9.514999390E-2,1.796827932E-1
1.234214862E1,1.351103783E-1,-1.967954636E-2,9.046506882E-2,1.637865304E-1
1.235042005E1,1.134757996E-1,-1.026946306E-2,6.424522400E-2,1.308039287E-1
1.235862632E1,7.508611679E-2,-1.269757748E-2,5.956172943E-2,9.667860684E-2
1.236683201E1,4.876041412E-2,-1.997148991E-2,3.800487518E-2,6.496775302E-2
1.237506409E1,4.650306702E-2,-7.883608341E-3,4.261541367E-2,6.356697259E-2
1.238327036E1,9.456062317E-2,1.140066981E-2,6.872892380E-2,1.174536151E-1
1.239148493E1,1.114826202E-1,-1.226004958E-2,7.808780670E-2,1.366615856E-1
1.239969355E1,1.307978630E-1,-7.325977087E-3,9.224224091E-2,1.602197925E-1
1.240790209E1,1.356353760E-1,-7.439374924E-3,1.137332916E-1,1.771653497E-1
1.241613251E1,1.451735497E-1,-1.498275995E-2,9.464502335E-2,1.739468972E-1
1.242433874E1,1.068038940E-1,3.688931465E-3,9.234952927E-2,1.412413380E-1
1.243258670E1,8.522796631E-2,1.039645076E-2,8.522272110E-2,1.209743966E-1
1.244079312E1,5.902147293E-2,2.770215273E-3,3.480100632E-2,6.857345259E-2
1.244899970E1,8.553504944E-2,5.186468363E-3,2.978754044E-2,9.072178185E-2
1.245723047E1,1.024856567E-1,-1.637041569E-2,3.433609009E-2,1.093172787E-1
1.246543701E1,1.099510193E-1,-2.109026909E-2,6.510114670E-2,1.295074723E-1
1.247367501E1,1.390185356E-1,-2.093127370E-2,9.818935394E-2,1.714800883E-1
1.248188093E1,1.416296959E-1,-2.578867972E-2,1.122846603E-1,1.825701830E-1
1.249008770E1,1.201825142E-1,-2.822275460E-2,1.073708534E-1,1.636119212E-1
1.249831955E1,9.865808487E-2,-3.086729348E-2,9.538173676E-2,1.406551927E-1
1.250652762E1,7.235431671E-2,-1.608729362E-4,8.099365234E-2,1.086054545E-1
1.251476816E1,8.187389374E-2,6.750941277E-3,6.910657883E-2,1.073528245E-1
1.252297493E1,6.275081635E-2,-5.360513926E-3,5.470752716E-2,8.342250050E-2
1.253118078E1,7.006263733E-2,4.100561142E-3,6.652212143E-2,9.669943325E-2
1.253941078E1,9.649801254E-2,6.448596716E-3,9.752225876E-2,1.373464298E-1
1.254761593E1,1.084470749E-1,3.891766071E-3,9.516525269E-2,1.443341235E-1
1.255582962E1,1.108422279E-1,-5.700856447E-3,8.798027039E-2,1.416298953E-1
1.256403651E1,1.108231544E-1,3.547608852E-3,9.280872345E-2,1.445953534E-1
1.257224316E1,9.879589081E-2,8.174240589E-3,7.851982117E-2,1.264626766E-1
1.258047243E1,9.152698517E-2,9.292662144E-4,7.863187790E-2,1.206690713E-1
1.258867716E1,8.435344696E-2,-9.010553360E-3,6.187629700E-2,1.050017629E-1
1.259694670E1,8.187532425E-2,-1.145240664E-2,8.113861084E-2,1.158369566E-1
1.260515378E1,8.185005188E-2,-1.389291883E-2,7.398796082E-2,1.112054969E-1
1.261335989E1,9.604454041E-2,1.034736633E-4,7.900905609E-2,1.243663757E-1
1.262159059E1,1.008358002E-1,-7.264167070E-3,7.661676407E-2,1.268493408E-1
1.262979824E1,1.175398827E-1,-9.844809771E-3,6.712102890E-2,1.357121101E-1
1.263803662E1,1.031155586E-1,2.140820026E-3,6.958770752E-2,1.244180476E-1
1.264624362E1,9.591293335E-2,-5.439698696E-3,6.005287170E-2,1.132926675E-1
1.265444936E1,9.582757950E-2,-8.438825607E-4,7.692813873E-2,1.228884684E-1
1.266267943E1,9.586572647E-2,1.093420386E-2,8.886051178E-2,1.311715856E-1
1.267088459E1,1.055107117E-1,-5.926460028E-3,8.159637451E-2,1.335125520E-1
1.267913259E1,8.878231049E-2,-1.544994116E-2,8.634233475E-2,1.248038385E-1
1.268733786E1,7.920742035E-2,2.048587799E-2,9.112834930E-2,1.224657613E-1
1.269554336E1,8.391332626E-2,-1.300841570E-3,9.124231339E-2,1.239689407E-1
1.270377339E1,9.582328796E-2,-6.089240313E-3,8.892583847E-2,1.308701116E-1
1.271197874E1,1.053967476E-1,-3.617733717E-3,8.413696289E-2,1.349095657E-1
1.272019070E1,1.006064415E-1,-1.072320342E-2,6.977128983E-2,1.229010824E-1
1.272839601E1,9.348678589E-2,-6.193429232E-3,8.167409897E-2,1.242931862E-1
1.273660316E1,1.031589508E-1,-1.504689455E-3,7.198286057E-2,1.257997036E-1
1.274483312E1,7.670450211E-2,-1.829567552E-2,8.410215378E-2,1.152887013E-1
1.275303793E1,1.102232933E-1,-6.324648857E-3,7.213115692E-2,1.318790331E-1
1.276127635E1,1.102199554E-1,1.294437051E-2,9.367895126E-2,1.452299598E-1
1.276948224E1,1.079134941E-1,-1.308614016E-2,8.876800537E-2,1.403436071E-1
1.277768820E1,1.126399040E-1,1.084783673E-2,8.405685425E-2,1.409644575E-1
1.278591851E1,9.106111526E-2,-2.986834943E-2,8.170366287E-2,1.259354340E-1
1.279412308E1,1.172752380E-1,-2.026215196E-2,9.382629395E-2,1.515500237E-1
1.280235901E1,8.136367798E-2,-2.259790897E-2,7.945537567E-2,1.159477051E-1
1.281056324E1,1.219739914E-1,-1.785159111E-2,7.238912582E-2,1.429563549E-1
1.281876747E1,9.329700470E-2,-9.971857071E-4,4.837703705E-2,1.050983500E-1
1.282699616E1,1.148381233E-1,1.106733084E-2,8.429288864E-2,1.428830692E-1
1.283520124E1,1.242861748E-1,-1.276507974E-2,7.966232300E-2,1.481758624E-1
1.284347135E1,1.338806152E-1,-2.686959505E-2,8.441686630E-2,1.605372281E-1
1.285167766E1,1.217517853E-1,-1.269450784E-2,7.026100159E-2,1.411426799E-1
1.285988405E1,1.120991707E-1,1.512020826E-3,6.078481674E-2,1.275276606E-1
1.286811655E1,7.850885391E-2,6.212443113E-3,6.087827682E-2,9.954094224E-2
1.287632451E1,5.217552185E-2,1.338714361E-2,4.890537262E-2,7.275462986E-2
1.288453628E1,6.905937195E-2,1.327142119E-2,4.875230789E-2,8.556935783E-2
1.289274351E1,7.881593704E-2,-1.277604699E-2,6.048488617E-2,1.001678629E-1
1.290095028E1,1.149592400E-1,-2.455270290E-2,7.455348969E-2,1.392001613E-1
1.290918128E1,1.342506409E-1,-2.673238516E-2,1.126766205E-1,1.772960118E-1
1.291739020E1,1.224241257E-1,-2.728521824E-3,1.077022552E-1,1.630793891E-1
1.292563958E1,1.105403900E-1,-2.198064327E-2,1.123862267E-1,1.591634080E-1
1.293384808E1,9.620380402E-2,1.628288627E-2,1.027750969E-1,1.417145893E-1
1.294205524E1,9.119892120E-2,-5.485713482E-3,6.235694885E-2,1.106152130E-1
1.295028770E1,9.828138351E-2,-1.022914052E-2,4.572153091E-2,1.088775645E-1
1.295849574E1,6.950855255E-2,-1.240035892E-2,5.294752121E-2,8.825331598E-2
1.296673416E1,8.858489990E-2,-1.676264405E-2,5.302667618E-2,1.045949287E-1
1.297494082E1,9.344768524E-2,-2.843116224E-2,6.967878342E-2,1.199830560E-1
1.298314685E1,1.291990280E-1,-3.537701070E-2,1.153607368E-1,1.767824124E-1
1.299137812E1,1.195182800E-1,-3.499080241E-2,1.011095047E-1,1.604123046E-1
1.299958485E1,1.171488762E-1,1.083701849E-3,1.034665108E-1,1.563021192E-1
1.300782443E1,8.596372604E-2,-6.071597338E-3,7.480955124E-2,1.141187778E-1
1.301603193E1,8.102416992E-2,5.858242512E-3,4.627227783E-2,9.348988615E-2
1.302423824E1,6.890010834E-2,4.407382011E-2,4.646873474E-2,9.406949483E-2
1.303246912E1,5.938482285E-2,2.492019534E-2,4.399728775E-2,7.799573482E-2
1.304067424E1,6.904983521E-2,3.224954009E-2,8.936929703E-2,1.174511976E-1
1.304888424E1,8.835363388E-2,1.332622766E-2,9.635257721E-2,1.314068952E-1
1.305708816E1,9.568357468E-2,4.053950310E-3,9.136676788E-2,1.323618799E-1
1.306529316E1,1.100721359E-1,1.618656516E-2,1.272425652E-1,1.690223369E-1
1.307352232E1,1.004729271E-1,3.312531114E-2,9.613895416E-2,1.429503194E-1
1.308172947E1,9.810113907E-2,4.265737534E-2,1.104779243E-1,1.537818485E-1
1.309000204E1,8.857870102E-2,3.053939342E-2,8.407974243E-2,1.258898086E-1
1.309821043E1,8.632564545E-2,1.641103625E-2,7.670831680E-2,1.166430668E-1
1.310641832E1,6.473350525E-2,1.437383890E-2,5.280637741E-2,8.476760845E-2
1.311465205E1,7.916784286E-2,-6.830006838E-3,5.031108856E-2,9.404999718E-2
1.312286112E1,9.349012375E-2,-4.211774468E-2,8.146333694E-2,1.309602341E-1
1.313110231E1,1.294550896E-1,-2.488194406E-2,8.616447449E-2,1.574866598E-1
1.313930908E1,1.198444366E-1,-2.939502895E-2,9.337949753E-2,1.547465259E-1
1.314751643E1,1.533598900E-1,-4.834097624E-2,9.816169739E-2,1.883927405E-1
1.315574724E1,1.294126511E-1,-4.333734512E-2,9.097766876E-2,1.640204132E-1
1.316395424E1,1.244320869E-1,-3.142215312E-2,7.685661316E-2,1.495915604E-1
1.317220208E1,1.098756790E-1,-4.342222214E-2,7.230949402E-2,1.385164869E-1
