"Time (s)","Linear Acceleration x (m/s^2)","Linear Acceleration y (m/s^2)","Linear Acceleration z (m/s^2)","Absolute acceleration (m/s^2)"
2.094085300E-2,-1.958045959E-1,-2.203040123E-1,-4.525113106E-2,2.981961812E-1
2.915189100E-2,-1.149678230E-1,-2.052707672E-1,-1.270580292E-2,2.356164800E-1
3.736316000E-2,6.082153320E-2,-8.889150620E-2,1.085190773E-1,1.528965301E-1
4.559343000E-2,1.174163818E-2,1.306533813E-4,1.234561205E-1,1.240132929E-1
5.381254500E-2,-3.443050385E-2,6.616830826E-2,6.541943550E-2,9.921394637E-2
6.202427600E-2,-8.860111237E-3,1.359939575E-3,4.022431374E-2,4.121099880E-2
7.023566000E-2,1.382160187E-2,-7.069778442E-2,4.014170170E-2,8.246556624E-2
7.844735300E-2,-3.934431076E-2,-1.180963516E-1,-7.346868515E-4,1.244799696E-1
8.667023700E-2,-4.093313217E-2,-1.513991356E-1,-3.692364693E-2,1.611228577E-1
9.488069900E-2,-7.860183716E-3,-1.216626167E-1,-1.129341125E-1,1.661857051E-1
1.031025060E-1,1.479291916E-2,-1.508145332E-1,-2.731275558E-2,1.539800004E-1
1.113122370E-1,1.304130554E-1,-1.539049149E-1,-9.682893753E-3,2.019605067E-1
1.195234680E-1,1.802105904E-1,-1.314640045E-1,-5.780029297E-2,2.304333206E-1
1.277534680E-1,2.442088127E-1,-1.134858131E-1,3.048002720E-2,2.710092361E-1
1.359705830E-1,2.939605713E-1,-5.344772339E-2,1.482418776E-1,3.335343024E-1
1.441816980E-1,3.324675560E-1,1.245927811E-2,2.025080919E-1,3.894861188E-1
1.523915060E-1,3.520946503E-1,6.031179428E-2,2.382332087E-1,4.293753800E-1
1.606030060E-1,2.755727768E-1,5.125999451E-3,2.010163069E-1,3.411366102E-1
1.688253140E-1,2.247118950E-1,-5.070781708E-2,1.463038921E-1,2.728947550E-1
1.770360440E-1,1.694679260E-1,-6.710529327E-2,1.060121059E-1,2.108579260E-1
1.852445830E-1,4.717111588E-2,-2.699327469E-2,5.294048786E-2,7.587124822E-2
1.934525060E-1,2.883815765E-2,-2.469730377E-2,1.542960405E-1,1.588989121E-1
2.016621210E-1,1.027121544E-1,1.295042038E-2,2.529985905E-1,2.733601778E-1
2.098916210E-1,-1.936292648E-2,-4.944705963E-2,2.419500351E-1,2.477090110E-1
2.181081600E-1,-1.235961914E-3,-4.314899445E-3,2.104493380E-1,2.104971967E-1
2.263193520E-1,1.254949570E-1,6.742477417E-4,1.478465796E-1,1.939279503E-1
2.345299290E-1,1.236095428E-1,-5.899715424E-2,1.568803787E-1,2.082581007E-1
2.427395440E-1,1.316070557E-4,-1.830592155E-1,2.562760115E-1,3.149414037E-1
2.509640060E-1,-4.650402069E-2,-2.329392433E-1,2.412320375E-1,3.385501602E-1
2.591750060E-1,3.557348251E-2,-2.895398140E-1,1.780191660E-1,3.417449341E-1
2.674102750E-1,3.297662735E-2,-2.797307968E-1,1.919633150E-1,3.408616889E-1
2.756199670E-1,-1.276636124E-2,-2.423491478E-1,3.187272549E-1,4.006034853E-1
2.838298900E-1,1.929235458E-2,-1.582374573E-1,4.267265797E-1,4.555292105E-1
2.920606590E-1,1.596760750E-1,-1.273202896E-2,3.517870903E-1,3.865394034E-1
3.002798520E-1,3.806400299E-1,1.023697853E-1,1.935305595E-1,4.391132915E-1
3.084925820E-1,5.876474380E-1,3.365383148E-1,1.542007923E-1,6.945253294E-1
3.167048900E-1,8.384132385E-1,6.424479485E-1,2.371842861E-1,1.082558317E0
3.249154290E-1,1.038658142E0,8.909749985E-1,2.284121513E-1,1.387378569E0
3.331393520E-1,1.257449150E0,1.165712357E0,7.953858376E-2,1.716505185E0
3.413512360E-1,1.468285084E0,1.428108215E0,-1.482219696E-1,2.053612406E0
3.495742750E-1,1.774480343E0,1.577324390E0,-4.789259434E-1,2.422003877E0
3.577866980E-1,1.903306007E0,1.622934818E0,-7.525453568E-1,2.612052009E0
3.659988900E-1,1.246050358E0,1.976970196E0,-7.979676723E-1,2.469373413E0
3.742323130E-1,6.240601540E-1,2.633112907E0,-6.449193954E-1,2.781843936E0
3.824540440E-1,-2.105870247E-1,2.912917137E0,-3.980295658E-1,2.947517715E0
3.906680820E-1,-1.157904148E0,3.076913357E0,-1.377375126E-1,3.290457330E0
3.988794670E-1,-1.287015438E0,3.067834377E0,1.098480225E-1,3.328675877E0
4.070893510E-1,-1.619044304E0,2.565679550E0,-1.738572121E-2,3.033861941E0
4.153105440E-1,-1.980092525E0,2.373803616E0,-1.964695454E-1,3.097468369E0
4.235196200E-1,-2.510608673E0,2.312702656E0,-4.704968929E-1,3.445738935E0
4.317303510E-1,-2.439738750E0,2.094365120E0,-8.658939600E-1,3.329934350E0
4.399403130E-1,-2.284917355E0,2.019624710E0,-1.019466996E0,3.215438422E0
4.481505050E-1,-1.761273384E0,1.436858654E0,-7.491390705E-1,2.393293979E0
4.563795430E-1,-1.338160038E0,5.414633751E-1,1.255393028E-1,1.449004828E0
4.645953900E-1,-1.840118885E0,9.560580254E-1,7.160482407E-1,2.193811647E0
4.728018130E-1,-1.633478642E0,1.522065163E0,1.799577713E0,2.867649696E0
4.810095820E-1,-1.102568150E0,2.498200417E0,2.714715242E0,3.850498759E0
4.892206590E-1,-5.682191849E-1,3.738384247E0,3.292327881E0,5.013762329E0
4.974440050E-1,-4.178729057E-1,5.215325832E0,3.178578854E0,6.121895526E0
5.056525430E-1,-6.239762306E-1,6.570128441E0,2.507786274E0,7.060093913E0
5.138869660E-1,-6.495466232E-1,6.931691647E0,1.311350346E0,7.084483018E0
5.220970430E-1,4.612407684E-1,5.148469925E0,6.028184891E-1,5.204121035E0
5.303070050E-1,3.455448151E-1,3.381100178E0,1.066603661E-1,3.400384694E0
5.385364660E-1,-4.874653816E-1,2.430135250E0,-6.946680546E-1,2.574051969E0
5.467531200E-1,-1.621124744E0,1.945180416E0,-1.148795128E0,2.780557954E0
5.549624280E-1,-2.128802299E0,1.891007900E0,-1.448196888E0,3.194524117E0
5.631714280E-1,-2.303794384E0,1.618740082E0,-1.458359718E0,3.170899097E0
5.713811970E-1,-2.670326710E0,1.068417072E0,-1.419334888E0,3.207284101E0
5.796029660E-1,-2.590773582E0,8.386044502E-1,-1.297884464E0,3.016598956E0
5.878135040E-1,-2.612390041E0,8.219122887E-1,-1.085580349E0,2.945947425E0
5.960350040E-1,-2.559813976E0,1.023005009E0,-1.137998581E0,2.982319167E0
6.042441580E-1,-2.703425884E0,9.505681992E-1,-1.044343710E0,3.050040196E0
6.124529660E-1,-2.885994673E0,6.898627281E-1,-8.447487354E-1,3.085202791E0
6.206820040E-1,-3.028262854E0,1.405730247E-1,-7.629945278E-1,3.126067391E0
6.288994270E-1,-3.085855961E0,-4.071073532E-1,-7.785720825E-1,3.208491530E0
6.371080810E-1,-2.500621319E0,-6.111350060E-1,-7.909626961E-1,2.692993680E0
6.453180430E-1,-1.629795551E0,-5.955600739E-1,-9.300777912E-1,1.968748343E0
6.535281960E-1,-7.208824158E-1,-5.072832108E-1,-1.411154032E0,1.663839961E0
6.617506580E-1,-2.868881226E-1,-3.828606606E-1,-1.864376068E0,1.924781859E0
6.699606200E-1,-1.363234997E0,-1.243605614E-1,-1.977678537E0,2.405220905E0
6.781696580E-1,-2.943211079E0,2.033009529E-1,-1.764228344E0,3.437488092E0
6.863773500E-1,-4.238148689E0,6.184411049E-1,-1.614193201E0,4.577116276E0
6.945865040E-1,-4.999771595E0,9.389557838E-1,-1.694070339E0,5.361830684E0
7.028172350E-1,-6.212454319E0,3.746051788E-1,-1.837339401E0,6.489278371E0
7.110313120E-1,-6.770804882E0,-2.793507576E-1,-1.866175890E0,7.028829778E0
7.192401960E-1,-7.099335670E0,-5.859775543E-1,-1.858268976E0,7.361867986E0
7.274487730E-1,-7.071243763E0,-8.987483978E-1,-1.842840910E0,7.362492761E0
7.356581960E-1,-6.872078419E0,-1.135407448E0,-1.946770668E0,7.232186938E0
7.438783500E-1,-6.358162403E0,-1.420784950E0,-2.069287300E0,6.835701058E0
7.520862350E-1,-5.518160820E0,-2.012127399E0,-2.025073051E0,6.212863782E0
7.603195810E-1,-4.815587044E0,-2.778329849E0,-1.939202905E0,5.888081456E0
7.685257730E-1,-4.591606617E0,-3.225542068E0,-1.896563172E0,5.923168479E0
7.767332340E-1,-4.499982357E0,-3.258076668E0,-1.700381994E0,5.810008925E0
7.849599270E-1,-4.380290031E0,-3.189033747E0,-1.657835007E0,5.666153361E0
7.931766960E-1,-3.314633131E0,-2.863357544E0,-1.302074909E0,4.569574191E0
8.013843110E-1,-1.674156189E0,-2.388820171E0,-5.318646431E-1,2.965154423E0
8.095914650E-1,5.732021332E-1,-1.653629303E0,4.492967129E-1,1.806908435E0
8.177986570E-1,3.919587135E0,-4.754133224E-1,1.619989634E0,4.267733304E0
8.260185420E-1,7.043241501E0,8.964462280E-1,3.010917425E0,7.712100260E0
8.342280420E-1,8.056331635E0,2.094777107E0,4.428892136E0,9.429085644E0
8.424473110E-1,7.009219646E0,2.824959278E0,5.739341259E0,9.489446404E0
8.506559270E-1,5.301699162E0,3.045751572E0,6.026250362E0,8.584888471E0
8.588649260E-1,3.768706799E0,2.734714985E0,5.330758572E0,7.078050857E0
8.671024650E-1,2.184319973E0,2.322158813E0,3.740857363E0,4.915047213E0
8.753193490E-1,1.518810272E0,1.086762428E0,1.833501816E0,2.617167577E0
8.835275800E-1,1.518742085E0,-3.697490692E-1,3.072998524E-1,1.593023883E0
8.917371190E-1,1.197749138E0,-1.548671246E0,-1.497316360E-1,1.963518573E0
8.999464260E-1,2.403211594E-1,-1.956584454E0,8.159828186E-2,1.972976245E0
9.081674650E-1,-1.037078381E0,-1.351172447E0,1.893501282E-1,1.713782956E0
9.163758880E-1,-1.292747498E0,-2.981581688E-1,-1.016125679E-1,1.330571118E0
9.245846950E-1,-1.088366985E0,-3.459916115E-1,-8.942199945E-1,1.450476573E0
9.327943880E-1,-9.597535133E-1,-4.875707626E-1,-1.901197910E0,2.184812475E0
9.410033110E-1,-5.917091370E-1,-4.765386581E-1,-2.731285572E0,2.834983187E0
9.492326950E-1,-1.805591583E-1,-2.735934258E-1,-2.934016466E0,2.952271599E0
9.574486180E-1,4.118523598E-1,6.127548218E-2,-2.699535608E0,2.731459235E0
9.656574650E-1,4.252204895E-1,1.177787781E-2,-2.411082268E0,2.448319604E0
9.738665410E-1,-1.703125000E0,-3.247413635E0,2.508242607E0,4.442703125E0
9.820739260E-1,-2.173363924E0,-3.032581329E0,6.550095558E0,7.538157075E0
9.902938490E-1,-2.044036150E0,-3.903512955E0,9.461743832E-1,4.506744183E0
9.985006950E-1,-3.654974937E0,-5.428372383E0,-4.643540859E0,8.024247020E0
1.006733003E0,-4.904692173E0,-5.312707901E0,-6.476172447E0,9.706785262E0
1.014938964E0,-5.089594841E0,-5.353012085E0,-6.154241085E0,9.614228901E0
1.023144772E0,-4.900447845E0,-5.146992207E0,-6.693912506E0,9.762908506E0
1.031371118E0,-5.054823399E0,-5.407235146E0,-6.777532578E0,1.003615361E1
1.039584541E0,-5.097012520E0,-5.322818756E0,-6.916070461E0,1.010662984E1
1.047791580E0,-4.706469059E0,5.954231262E0,-1.838373947E1,1.988883098E1
1.055998733E0,-5.632277489E0,1.095650291E1,-2.588219643E1,2.866453554E1
1.064207310E0,-6.422933578E0,1.455549908E1,-2.630383492E1,3.074098828E1
1.072428041E0,-5.313807487E0,1.864114380E1,-2.209389496E1,2.939164825E1
1.080636233E0,-3.005330801E0,2.097156525E1,-1.448703003E1,2.566539696E1
1.088861041E0,-4.829769135E-1,2.020185089E1,-6.141508102E0,2.112027859E1
1.097069349E0,4.831624031E-1,1.571814632E1,-1.787354708E0,1.582681922E1
1.105277733E0,-6.297016144E-2,1.080383301E1,7.292518616E-1,1.082860015E1
1.113507002E0,-1.121826887E0,6.455991745E0,9.137024879E-1,6.616130078E0
1.121721810E0,-2.418606997E0,3.497483253E0,6.661348343E-1,4.304158981E0
1.129928425E0,-3.284224510E0,1.281265259E0,1.099646091E-1,3.527019069E0
1.138137233E0,-3.584255695E0,-2.855625153E-1,-3.629522324E-1,3.613885605E0
1.146346156E0,-3.735112667E0,-1.890265465E0,-7.891304493E-1,4.259917491E0
1.154565887E0,-3.725871801E0,-3.277964115E0,-1.074626207E0,5.077596962E0
1.162773041E0,-3.519202232E0,-4.507251263E0,-1.415305495E0,5.890941176E0
1.170980464E0,-3.289921284E0,-5.548818588E0,-1.585680127E0,6.642842106E0
1.179186848E0,-3.113471031E0,-6.281786919E0,-1.605987787E0,7.192617432E0
1.187394156E0,-3.087050915E0,-6.569531441E0,-1.497622848E0,7.411578840E0
1.195621464E0,-3.207729340E0,-6.441173077E0,-1.302214861E0,7.312591993E0
1.203836233E0,-3.419698715E0,-5.748085022E0,-9.209449291E-1,6.751515407E0
1.212043656E0,-3.408225536E0,-4.542447090E0,-4.293869734E-1,5.695103164E0
1.220250540E0,-3.273226738E0,-3.021090984E0,9.297370911E-2,4.455294393E0
1.228456656E0,-2.904192209E0,-1.284714699E0,4.727102518E-1,3.210650904E0
1.236674963E0,-2.379950047E0,2.686109543E-1,6.075152159E-1,2.470908498E0
1.244879771E0,-2.141323805E0,1.427807808E0,6.003539562E-1,2.642787855E0
1.253112233E0,-2.266450644E0,2.403598785E0,1.450492740E0,3.608048618E0
1.261318617E0,-2.854358435E0,2.839836121E0,3.124826431E0,5.096721642E0
1.269526233E0,-3.517426968E0,2.446170807E0,4.546523094E0,6.247152658E0
1.277756156E0,-3.418192625E0,1.645111084E0,3.695783377E0,5.296153894E0
1.285971002E0,-2.595249176E0,6.486635208E-1,8.117091656E-1,2.795523997E0
1.294176848E0,-1.879492521E0,1.150541306E-1,-1.039693594E0,2.150974746E0
1.302382848E0,-1.573976517E0,-3.754796982E-1,-2.272050381E0,2.789372691E0
1.310589694E0,-4.731352329E-1,-7.586746216E-1,-3.972305298E0,4.071689270E0
1.318808540E0,5.685051680E-1,-6.970729828E-1,-6.521197796E0,6.582942318E0
1.327014617E0,8.562277555E-1,-5.651321411E-1,-5.410412788E0,5.506820030E0
1.335231232E0,5.663447380E-1,-1.869602203E-1,-3.704631329E0,3.752331777E0
1.343437348E0,4.508709908E-2,-1.157712936E-1,-2.004918575E0,2.008764380E0
1.351645078E0,-1.467930079E-1,-3.075046539E-1,-9.545207024E-2,3.538621159E-1
1.359871771E0,2.315765619E-1,-5.156574249E-1,3.107259989E0,3.158258210E0
1.368087194E0,1.376639605E0,-7.189817429E-1,7.659655094E0,7.815522216E0
1.376295117E0,1.474486828E0,-5.452461243E-1,7.806372643E0,7.963093530E0
1.384502655E0,8.254259825E-1,-9.087657928E-2,4.710296631E0,4.782936437E0
1.392711771E0,1.996098757E-1,3.678140640E-1,1.841749191E0,1.888695680E0
1.400930847E0,2.739298344E-2,4.730672836E-1,3.171857595E-1,5.702191127E-1
1.409138347E0,3.165316582E-1,4.062252045E-1,-2.356755733E-2,5.155255931E-1
1.417345655E0,9.773207903E-1,4.186754227E-1,-3.818805218E-1,1.129724643E0
1.425551809E0,1.536900282E0,5.439529419E-1,-7.404536009E-1,1.790591750E0
1.433759386E0,2.045761824E0,5.496749878E-1,-1.194330335E0,2.431811872E0
1.441987963E0,2.499299765E0,5.167169571E-1,-1.592847228E0,3.008431156E0
1.450203001E0,2.828512907E0,6.528797150E-1,-2.089023590E0,3.576416747E0
1.458410232E0,3.277579069E0,7.567520142E-1,-2.516710520E0,4.201074863E0
1.466618309E0,3.568887949E0,9.693355560E-1,-2.805352449E0,4.641828840E0
1.474825078E0,4.022968292E0,1.264723778E0,-2.821046352E0,5.073667573E0
1.483042693E0,4.269373894E0,1.715373039E0,-2.552172899E0,5.261524933E0
1.491247616E0,4.768392086E0,2.423036575E0,-2.054766417E0,5.729811023E0
1.499476924E0,5.221993446E0,3.148758888E0,-2.005912662E-1,6.101158492E0
1.507681347E0,5.010735512E0,4.897287369E0,6.164862156E0,9.332546241E0
1.515885693E0,3.910724163E0,5.557169914E0,6.087916851E0,9.123520840E0
1.524110078E0,1.459836245E0,4.219250679E0,2.503454685E0,5.118640788E0
1.532321809E0,-6.304097176E-2,3.068089485E0,-1.833152175E-1,3.074207495E0
1.540528308E0,-1.784212589E-1,2.985237122E0,-2.083920956E0,3.645024193E0
1.548736078E0,6.134190559E-1,3.644077301E0,-4.936597824E0,6.166488498E0
1.556943347E0,1.697933197E0,4.644459724E0,-7.181502342E0,8.719401308E0
1.565162501E0,2.268018007E0,5.698674202E0,-7.819838047E0,9.938242321E0
1.573370155E0,1.874154091E0,6.401477814E0,-7.015249252E0,9.680139143E0
1.581585731E0,6.161687374E-1,7.153135300E0,-3.952669621E0,8.195767545E0
1.589791616E0,-1.929705501E0,7.180774689E0,-6.926530600E-1,7.467734376E0
1.597997231E0,-4.423798084E0,6.632936478E0,2.471538305E0,8.347115514E0
1.606222308E0,-6.378757477E0,5.989546776E0,3.115082026E0,9.288000514E0
1.614435770E0,-8.066267014E0,5.509962082E0,2.655654430E0,1.012308481E1
1.622641077E0,-1.017680359E1,5.000513077E0,1.083027124E0,1.139058427E1
1.630845962E0,-1.183650780E1,4.531367302E0,-1.029173136E0,1.271595076E1
1.639049847E0,-1.267048645E1,4.053684235E0,-3.321680546E0,1.371156973E1
1.647267693E0,-1.231217003E1,3.301922798E0,-4.966367722E0,1.368053483E1
1.655472462E0,-8.759367943E0,2.464538574E0,-6.808489799E0,1.136468260E1
1.663679270E0,-5.061663628E0,1.623798370E0,-7.567323208E0,9.247785700E0
1.671885885E0,-2.637338638E0,9.982709885E-1,-7.991376877E0,8.474326194E0
1.680089539E0,-1.237957239E0,3.708782196E-1,-8.282480240E0,8.382694537E0
1.688312577E0,-4.805749655E-2,-2.043752670E-1,-8.154941559E0,8.157643692E0
1.696525308E0,5.095955133E-1,-4.927177429E-1,-7.818531036E0,7.850597807E0
1.704730654E0,8.445042372E-1,-8.154630661E-1,-7.394091606E0,7.486705424E0
1.712937039E0,9.713287950E-1,-1.217745304E0,-6.669839382E0,6.849316801E0
1.721142923E0,8.443325162E-1,-1.640084743E0,-6.071488380E0,6.345529648E0
1.729361462E0,7.811465263E-1,-2.022112846E0,-6.010971069E0,6.389906373E0
1.737567769E0,1.098336220E0,-2.492361069E0,-5.612219810E0,6.238206261E0
1.745800385E0,1.293999434E0,-3.024669170E0,-5.446731567E0,6.363170821E0
1.754007000E0,1.573658705E0,-3.518147469E0,-4.987692356E0,6.303240307E0
1.762213769E0,1.571366310E0,-3.860408306E0,-4.505569935E0,6.137760569E0
1.770441154E0,1.365185022E0,-4.144794941E0,-4.298367500E0,6.125277007E0
1.778655192E0,8.894488215E-1,-4.242818356E0,-4.266115189E0,6.082134955E0
1.786860269E0,3.367618322E-1,-4.251735210E0,-4.278429031E0,6.041160138E0
1.795065769E0,-4.327773154E-1,-4.154919624E0,-4.364933014E0,6.041795553E0
1.803272731E0,-1.294942498E0,-3.919616699E0,-4.571548939E0,6.159491119E0
1.811493307E0,-1.940038443E0,-3.882028103E0,-4.568790913E0,6.301407918E0
1.819701000E0,-2.642725468E0,-4.010395527E0,-4.673178673E0,6.701184156E0
1.827918307E0,-3.178570986E0,-4.227466106E0,-4.894836426E0,7.206539171E0
1.836125654E0,-3.544579506E0,-4.332844734E0,-5.357027531E0,7.748246984E0
1.844332692E0,-3.492968082E0,-4.622389793E0,-5.522089958E0,8.003798532E0
1.852559846E0,-4.019223690E0,-4.877355576E0,-5.764628410E0,8.554162565E0
1.860775923E0,-3.941692352E0,-5.152835846E0,-5.663568497E0,8.611890848E0
1.868984923E0,-3.577995300E0,-5.399226189E0,-5.331170082E0,8.388984936E0
1.877193153E0,-3.096364260E0,-5.413311005E0,-4.802174568E0,7.870977591E0
1.885401692E0,-2.391393900E0,-5.199951649E0,-4.215415478E0,7.108304269E0
1.893623576E0,-1.462664127E0,-4.843374252E0,-3.725963354E0,6.283348105E0
1.901832307E0,-8.373845816E-1,-3.952216148E0,-3.252996445E0,5.186830563E0
1.910041038E0,-3.401659727E-1,-2.540875912E0,-2.798118114E0,3.794895028E0
1.918250153E0,-3.610539436E-2,-3.486309052E-1,-2.280702591E0,2.307477284E0
1.926459461E0,3.560107946E-1,2.219132423E0,-1.295271158E0,2.594035422E0
1.934685692E0,7.578656673E-1,4.624141693E0,1.022746086E0,4.796150157E0
1.942900230E0,1.064855456E0,6.297825813E0,4.435897350E0,7.776484580E0
1.951107038E0,1.023966074E0,7.213633537E0,7.531141758E0,1.047869799E1
1.959314538E0,7.967393398E-1,7.009198189E0,9.937913895E0,1.218711555E1
1.967523538E0,1.681022644E-1,5.949433327E0,1.043079185E1,1.200938941E1
1.975760615E0,-2.767109275E-1,4.403385162E0,9.203401566E0,1.020632011E1
1.983968153E0,-4.481377602E-1,2.606259346E0,7.180953026E0,7.652418022E0
1.992202538E0,-7.104192972E-1,1.063625336E0,5.226126671E0,5.380371215E0
2.000411230E0,-1.216355801E0,-2.544279099E-1,3.285656691E0,3.512804419E0
2.008616730E0,-1.463378668E0,-1.053652763E0,1.434415340E0,2.304172007E0
2.016844576E0,-1.420156598E0,-1.625074863E0,-6.693778038E-1,2.259597247E0
2.025059922E0,-1.586864233E0,-1.686619759E0,-2.308210135E0,3.269657219E0
2.033266884E0,-1.594337583E0,-1.367887497E0,-3.611798048E0,4.178290760E0
2.041473730E0,-1.567662954E0,-8.939342499E-1,-4.610566139E0,4.951162056E0
2.049680768E0,-1.671796560E0,-3.156948090E-1,-5.436326027E0,5.696332822E0
2.057898999E0,-2.021213770E0,5.280408859E-1,-5.975521088E0,6.330164654E0
2.066106422E0,-2.744925976E0,2.178853989E0,-6.205045700E0,7.126332539E0
2.074322422E0,-3.609164000E0,4.282061577E0,-6.339697838E0,8.458952937E0
2.082529499E0,-4.365784645E0,7.168412209E0,-6.201784134E0,1.043591566E1
2.090737614E0,-5.644014359E0,1.074486065E1,-6.632177353E0,1.383086060E1
2.098964306E0,-7.046024323E0,1.441906357E1,-6.910820961E0,1.747327386E1
2.107178499E0,-3.288977146E0,1.892479706E1,8.421476364E0,2.097347321E1
2.115384883E0,-6.571001053E0,1.691716385E1,4.819099426E0,1.877743877E1
2.123591345E0,-8.139780998E0,1.138249302E1,-1.032313108E0,1.403149502E1
2.131798460E0,-5.647264481E0,5.785072327E0,-3.600275278E0,8.849894916E0
2.140017960E0,-3.434327602E0,1.637258530E0,-5.645249367E0,6.807647317E0
2.148225422E0,-2.154577732E0,-1.897527218E0,-5.344723225E0,6.067032314E0
2.156432922E0,-1.211198092E0,-4.376494408E0,-4.087903023E0,6.109963604E0
2.164641960E0,-7.146751881E-1,-5.919201851E0,-3.017035961E0,6.682081799E0
2.172851537E0,-6.656681299E-1,-6.726704121E0,-2.794902086E0,7.314584066E0
2.181079191E0,-7.693569660E-1,-6.859051704E0,-2.683107376E0,7.405239065E0
2.189294075E0,-1.353597879E0,-6.314992905E0,-2.691637754E0,6.996876189E0
2.197501921E0,-2.125970840E0,-4.936637402E0,-3.166942120E0,6.238562594E0
2.205712767E0,-2.806936979E0,-2.397755623E0,-4.698862553E0,5.975569975E0
2.213925075E0,-3.246690035E0,8.000955582E-1,-6.325692177E0,7.155105212E0
2.222148921E0,-2.269962549E0,2.570072174E0,-6.836793900E0,7.648513044E0
2.230358344E0,-9.888412952E-1,3.992749214E0,-6.528997421E0,7.716713078E0
2.238592921E0,1.057194591E0,4.238672256E0,-6.521077633E0,7.849105452E0
2.246802075E0,2.822392941E0,3.658000946E0,-6.105264664E0,7.656443655E0
2.255009113E0,3.852303505E0,2.626689911E0,-5.146150112E0,6.944249647E0
2.263236383E0,3.301564932E0,9.322633743E-1,-4.177920818E0,5.405965997E0
2.271450421E0,1.263354421E0,-8.900012970E-1,-2.933531761E0,3.315686248E0
2.279657113E0,-5.690079331E-1,-2.522792339E0,-2.511350870E0,3.604876476E0
2.287863998E0,-1.228769302E0,-3.782797337E0,-2.029541492E0,4.465251209E0
2.296068190E0,-1.349944711E0,-4.708363533E0,-1.621096849E0,5.159359735E0
2.304288575E0,-1.095806479E0,-5.115869045E0,-1.631324887E0,5.480340210E0
2.312495113E0,-5.384263992E-1,-4.982125282E0,-2.056792259E0,5.416813613E0
2.320710729E0,2.722108364E-2,-4.256712437E0,-3.059923410E0,5.242468220E0
2.328917690E0,3.592025042E-1,-3.202189445E0,-3.921415806E0,5.075484766E0
2.337124882E0,5.031628609E-1,-2.222082138E0,-4.476439953E0,5.022881299E0
2.345351075E0,6.573448181E-1,-1.335095406E0,-4.945887089E0,5.164918300E0
2.353564267E0,5.372138023E-1,-6.867351532E-1,-5.091202736E0,5.165321785E0
2.361770190E0,4.897282124E-1,-3.582077026E-1,-4.984318733E0,5.021113394E0
2.369976805E0,3.248707056E-1,-2.302904129E-1,-4.532423019E0,4.549882754E0
2.378184536E0,-3.451371193E-2,-3.297462463E-1,-3.833263397E0,3.847574828E0
2.386404151E0,-4.190391302E-1,-5.970754623E-1,-2.931395531E0,3.020790072E0
2.394608998E0,-7.050629854E-1,-8.625612259E-1,-2.169645548E0,2.438952129E0
2.402815190E0,-7.997384071E-1,-9.444360733E-1,-1.632044315E0,2.048196686E0
2.411021728E0,-8.710050583E-1,-8.451452255E-1,-1.201461315E0,1.707755707E0
2.419228113E0,-9.425600767E-1,-6.531515121E-1,-9.091613293E-1,1.463420896E0
2.427455113E0,-9.983845949E-1,-4.183692932E-1,-6.303889751E-1,1.252675107E0
2.435670036E0,-1.094635963E0,-1.618299484E-1,-3.368651271E-1,1.156674085E0
2.443876228E0,-1.182399869E0,-2.674102783E-3,-7.154275477E-2,1.184565307E0
2.452084843E0,-1.241694808E0,1.148471832E-1,1.317836046E-1,1.253938910E0
2.460291920E0,-1.324559689E0,1.412525177E-1,2.774591148E-1,1.360659473E0
2.468509420E0,-1.359362125E0,1.660137177E-1,3.163967133E-1,1.405536489E0
2.476718651E0,-1.268938899E0,2.208499908E-1,3.736442924E-1,1.341115470E0
2.484952266E0,-1.214735270E0,2.293910980E-1,3.680576682E-1,1.289832740E0
2.493161305E0,-1.013069153E0,2.997770309E-1,3.297452927E-1,1.106755318E0
2.501369843E0,-5.701617002E-1,4.080190659E-1,1.822476387E-1,7.244157124E-1
2.509596959E0,-1.302286386E-1,5.345897675E-1,7.688772678E-2,5.555694739E-1
2.517811228E0,3.895888329E-1,7.144002914E-1,3.455767632E-1,8.840647795E-1
2.526018920E0,3.961729050E0,4.647006989E-1,7.597224236E0,8.580737724E0
2.534227305E0,6.442046165E0,6.407184601E-1,1.034650326E1,1.220494197E1
2.542434343E0,5.542519569E0,1.468006134E0,3.848550081E0,6.905498021E0
2.550651420E0,4.525527477E0,2.421821594E0,-1.814602137E0,5.444116062E0
2.558858112E0,4.073708534E0,2.636261940E0,-2.758591890E0,5.581649170E0
2.567077228E0,3.417291641E0,2.599633217E0,-1.605399370E0,4.584024668E0
2.575285074E0,1.726513028E0,2.531200409E0,8.351876736E-1,3.175745770E0
2.583492920E0,-1.940487623E-1,2.948889732E0,3.368542194E0,4.481147408E0
2.591720728E0,-1.182342291E0,3.582578659E0,5.010742188E0,6.272187849E0
2.599936728E0,-1.335358143E0,4.118109703E0,5.155477047E0,6.732083814E0
2.608141997E0,-5.411760807E-1,4.498151779E0,4.075690269E0,6.094053836E0
2.616348458E0,4.756748676E-1,4.704664230E0,2.893558502E0,5.543718328E0
2.624553766E0,9.909031391E-1,4.986503601E0,1.926720381E0,5.436851903E0
2.632770804E0,1.489167690E0,5.181062698E0,7.887692451E-1,5.448227970E0
2.640976458E0,2.321619511E0,5.432514191E0,-1.750256658E0,6.161617154E0
2.649183150E0,2.320723295E0,4.721822739E0,-3.647010803E0,6.401722767E0
2.657390112E0,-5.502065420E-1,3.429824829E0,-2.349044800E0,4.193380148E0
2.665596227E0,-2.120992422E0,2.651891708E0,-1.359812737E0,3.657899557E0
2.673822573E0,-2.506363153E0,2.050988197E0,-1.261034012E0,3.475430279E0
2.682037112E0,-2.028086185E0,1.648096085E0,-1.551555872E0,3.039190666E0
2.690244189E0,-1.248239756E0,1.777835846E0,-1.970450044E0,2.932827332E0
2.698452112E0,-4.543812275E-1,2.649283409E0,-2.182675362E0,3.462547706E0
2.706660381E0,-2.394298315E-1,4.127757072E0,-1.833930254E0,4.523163193E0
2.714881304E0,-5.532581806E-1,5.768191338E0,-1.132734895E0,5.904338597E0
2.723088381E0,-1.979179740E0,7.251076698E0,7.380938530E-2,7.516695654E0
2.731322189E0,-4.413693905E0,9.213963509E0,1.330683947E0,1.030284122E1
2.739531227E0,-8.472780228E0,1.075902748E1,7.105340958E-1,1.371311547E1
2.747740881E0,-1.128558922E1,1.054237652E1,-9.115067720E-1,1.547052266E1
2.755970304E0,-1.170506096E1,8.957082748E0,-2.659023523E0,1.497692190E1
2.764186612E0,-1.040965843E1,6.957405090E0,-5.993477821E0,1.388121935E1
2.772396804E0,-7.393879414E0,4.944122314E0,-7.812915802E0,1.183872677E1
2.780606381E0,-4.475453377E0,2.804154396E0,-7.541480064E0,9.206893416E0
2.788816804E0,-2.124357700E0,1.212629318E0,-6.997797012E0,7.412997270E0
2.797040188E0,-1.272506356E0,4.835987091E-1,-6.331153393E0,6.475850787E0
2.805249996E0,-8.589791059E-1,-1.671123505E-1,-5.893527031E0,5.958140021E0
2.813470034E0,-5.021228194E-1,-6.684694290E-1,-5.657038212E0,5.718484068E0
2.821681611E0,-2.491017580E-1,-8.894405365E-1,-5.789101601E0,5.862324922E0
2.829892150E0,-3.680194616E-1,-8.505454063E-1,-6.216745377E0,6.285442617E0
2.838122457E0,-3.856976628E-1,-6.890277863E-1,-6.668217659E0,6.714808167E0
2.846340573E0,1.247815490E-1,-1.041618347E0,-6.883976936E0,6.963452999E0
2.854549380E0,7.751399279E-1,-1.585121155E0,-7.311384678E0,7.521289576E0
2.862758996E0,1.544201732E0,-2.278927803E0,-7.227190018E0,7.733714920E0
2.870968073E0,2.111569166E0,-2.887367725E0,-7.503634453E0,8.312649802E0
2.879188457E0,2.429117680E0,-3.582620144E0,-7.199569702E0,8.400570439E0
2.887397842E0,2.375506878E0,-3.852637291E0,-6.834708214E0,8.197504705E0
2.895608803E0,2.305202246E0,-4.090762138E0,-6.359107494E0,7.904842844E0
2.903821496E0,2.075161457E0,-4.329280853E0,-5.448630333E0,7.261992859E0
2.912032457E0,9.367299676E-1,-4.479902744E0,-4.958012581E0,6.747509198E0
2.920264765E0,-3.199648857E-1,-4.478099346E0,-4.888980865E0,6.637611407E0
2.928482880E0,-1.288809657E0,-4.428964138E0,-5.339206696E0,7.055769399E0
2.936693880E0,-1.988411665E0,-4.363242149E0,-5.750961781E0,7.487671494E0
2.944904303E0,-2.460065842E0,-4.475735188E0,-6.011889458E0,7.888405686E0
2.953113803E0,-2.915021896E0,-4.635922432E0,-6.400175095E0,8.423263660E0
2.961335495E0,-3.057008743E0,-4.855925083E0,-6.685481548E0,8.810276636E0
2.969544495E0,-2.988061190E0,-5.183819771E0,-6.848608494E0,9.094170407E0
2.977779495E0,-2.738744259E0,-5.621994019E0,-6.538154602E0,9.047375446E0
2.985990803E0,-2.386559486E0,-6.001644135E0,-5.920320988E0,8.761597976E0
2.994200572E0,-2.119772196E0,-6.326809883E0,-5.294559479E0,8.517882221E0
3.002430226E0,-1.995405436E0,-6.522358894E0,-4.765297413E0,8.320508869E0
3.010648803E0,-1.795772076E0,-6.480824947E0,-4.249577999E0,7.955174575E0
3.018858726E0,-1.552978396E0,-6.397073746E0,-3.950796843E0,7.677440335E0
3.027068687E0,-1.196224809E0,-5.904558659E0,-3.655434132E0,7.046769858E0
3.035279264E0,-5.549300313E-1,-5.078648567E0,-3.392226696E0,6.132521550E0
3.043502341E0,4.282186031E-1,-3.201534271E0,-3.304534435E0,4.620945866E0
3.051713226E0,1.487912893E0,2.943102837E0,-2.738948822E0,4.286907946E0
3.059933649E0,3.386668205E0,1.077149487E1,1.434927940E0,1.138216330E1
3.068143072E0,2.786282063E0,1.463052464E1,9.891222000E0,1.787881124E1
3.076351764E0,-5.975219607E-1,1.528884888E1,1.328380871E1,2.026241610E1
3.084599110E0,-3.652835846E0,1.325199318E1,1.210539150E1,1.831663278E1
3.092814803E0,-3.883973122E0,9.586310387E0,9.829904556E0,1.426918420E1
3.101022456E0,-2.246668339E0,5.349130630E0,7.615926266E0,9.574082202E0
3.109230033E0,-4.718797207E-1,1.784348488E0,5.712879181E0,6.003628780E0
3.117437264E0,2.068960667E-2,-2.227125168E-1,4.033907413E0,4.040103705E0
3.125658649E0,-5.326638818E-1,-1.597502232E0,1.957062960E0,2.581828735E0
3.133867110E0,-1.921620488E0,-1.668816090E0,-1.788895130E-1,2.551386662E0
3.142075264E0,-2.512167215E0,-7.194032669E-1,-2.181241512E0,3.403871283E0
3.150285649E0,-2.218713999E0,4.685859680E-1,-4.277497768E0,4.841410102E0
3.158495456E0,-1.832642078E0,1.512041092E0,-5.950247765E0,6.407050313E0
3.166725072E0,-2.061471939E0,2.737315178E0,-7.089492798E0,7.874228157E0
3.174941533E0,-2.621728182E0,4.445054054E0,-7.008276463E0,8.703327133E0
3.183150341E0,-3.391404629E0,6.760801315E0,-6.499213696E0,9.972453983E0
3.191360725E0,-4.292175293E0,9.671318054E0,-6.012225151E0,1.216979921E1
3.199570033E0,-5.713948250E0,1.269971180E1,-5.557300568E0,1.499384787E1
3.207792571E0,-8.411835670E0,1.408904839E1,-3.742977858E0,1.683063121E1
3.216001841E0,-6.442724705E0,1.260696507E1,1.059083271E1,1.768078073E1
3.224236148E0,-8.922430992E0,8.393857956E0,3.295919418E0,1.268580746E1
3.232443533E0,-9.698125839E0,4.721194267E0,-3.561732531E0,1.135910466E1
3.240652187E0,-5.383719921E0,9.402456284E-1,-6.742324829E0,8.679138559E0
3.248880533E0,-2.485136509E0,-2.257654190E0,-6.464782238E0,7.284663019E0
3.257095610E0,-1.256830215E0,-4.642575264E0,-5.744798183E0,7.492385030E0
3.265303302E0,-6.308881640E-1,-6.388809204E0,-4.985367298E0,8.128271035E0
3.273512686E0,-4.415563643E-1,-7.559464455E0,-4.346605778E0,8.731177277E0
3.281719571E0,-3.868601322E-1,-8.289354324E0,-3.735508204E0,9.100388861E0
3.289938994E0,-2.975026965E-1,-8.697719574E0,-3.155853033E0,9.257334498E0
3.298145956E0,-1.189422607E-1,-8.610487938E0,-2.873210907E0,9.077994862E0
3.306364917E0,4.553140402E-1,-7.872572422E0,-3.653712273E0,8.691048313E0
3.314574263E0,9.971371293E-1,-6.180041313E0,-5.611351967E0,8.406810571E0
3.322783648E0,9.374215603E-1,-3.699353695E0,-8.285926819E0,9.122530361E0
3.331016148E0,-1.577425003E-2,-8.109092712E-1,-1.002442932E1,1.005718678E1
3.339232148E0,-2.121004581E0,2.192978859E0,-1.041963482E1,1.085709936E1
3.347439840E0,-2.912932396E0,5.230922699E0,-9.183818817E0,1.096313165E1
3.355646763E0,-2.275841236E0,6.833394051E0,-5.670122623E0,9.166516140E0
3.363856032E0,-1.248348951E0,6.996983528E0,-3.029972076E0,7.726375889E0
3.372075109E0,-1.198375702E0,5.946255684E0,-1.457191586E0,6.238386675E0
3.380281801E0,-1.529625177E0,4.065835953E0,-6.610682011E-1,4.394062624E0
3.388490109E0,-1.710554600E0,2.204406738E0,-4.065274000E-1,2.819693358E0
3.396699340E0,-1.824854136E0,5.403318405E-1,-5.051255226E-1,1.969061428E0
3.404908301E0,-1.564259052E0,-8.195495605E-1,-5.644258261E-1,1.853953715E0
3.413138301E0,-1.055920839E0,-1.810635090E0,-6.955397129E-1,2.208425625E0
3.421355686E0,-5.331024528E-1,-2.494880199E0,-9.032889605E-1,2.706391764E0
3.429566186E0,-5.920517445E-2,-2.895272255E0,-1.240470886E0,3.150376914E0
3.437776917E0,3.433257937E-1,-2.923115730E0,-1.570369959E0,3.335946639E0
3.445986570E0,7.936632633E-1,-2.675967216E0,-1.831541419E0,3.338449624E0
3.454208032E0,1.131033182E0,-2.101747036E0,-2.035982132E0,3.137164309E0
3.462417263E0,1.597356319E0,-1.355717659E0,-2.262696266E0,3.083717233E0
3.470651878E0,1.820235610E0,-6.126337051E-1,-2.506640673E0,3.157819690E0
3.478861416E0,2.008557796E0,-6.798744202E-3,-2.530016899E0,3.230377092E0
3.487069955E0,2.032073021E0,4.447736740E-1,-2.464237213E0,3.224842543E0
3.495299955E0,1.845091224E0,5.935802460E-1,-2.304224491E0,3.011004756E0
3.503515532E0,1.556050420E0,4.659595490E-1,-1.986624479E0,2.566142637E0
3.511725416E0,1.181914330E0,2.222747803E-1,-1.517048717E0,1.935914350E0
3.519934955E0,1.124157310E0,-2.646389008E-1,-1.086081147E0,1.585350328E0
3.528144609E0,1.001659274E0,-7.007436752E-1,-6.250653863E-1,1.372978418E0
3.536367070E0,6.102478504E-1,-1.003086090E0,-2.802802920E-1,1.207121032E0
3.544576262E0,-1.501977444E-2,-1.057015419E0,-1.008823514E-1,1.061924874E0
3.552795301E0,-3.542965651E-1,-1.000864029E0,-3.669619560E-3,1.061728933E0
3.561002416E0,-5.708334446E-1,-8.986043930E-1,1.162413061E-1,1.070912096E0
3.569209032E0,-6.845980883E-1,-7.928562164E-1,2.952218056E-1,1.088325060E0
3.577436493E0,-8.154947758E-1,-7.120485306E-1,4.346130490E-1,1.166590477E0
3.585651531E0,-8.558957577E-1,-7.276611328E-1,6.309264302E-1,1.288455056E0
3.593860378E0,-9.178991318E-1,-6.863412857E-1,8.100212216E-1,1.403473390E0
3.602070724E0,-9.647805691E-1,-7.745666504E-1,9.157897234E-1,1.539293948E0
3.610281647E0,-9.548610449E-1,-8.078527451E-1,8.942674398E-1,1.537562983E0
3.618504147E0,-9.193692207E-1,-6.710052490E-1,6.602959633E-1,1.315856591E0
3.626713031E0,-7.362978458E-1,-4.744968414E-1,4.785051346E-1,9.981227050E-1
3.634922185E0,-6.151472330E-1,-2.046098709E-1,2.832276344E0,2.905522433E0
3.643131916E0,9.601700306E-1,-4.679489136E-1,4.872132301E0,4.987842804E0
3.651342147E0,1.576080203E0,-5.751733780E-1,2.990436554E0,3.428930446E0
3.659570454E0,1.405918717E0,-1.323080063E-1,-1.517177820E-1,1.420257418E0
3.667786839E0,1.158475041E0,3.482933044E-1,-2.622672081E0,2.888214239E0
3.675996146E0,8.570204973E-1,6.333026886E-1,-3.548854113E0,3.705390930E0
3.684204570E0,3.992098570E-1,8.764505386E-1,-3.141077995E0,3.285407894E0
3.692415108E0,-3.568483591E-1,1.255189896E0,-1.594576359E0,2.060465042E0
3.700636069E0,-1.272105575E0,1.632789612E0,7.075322866E-1,2.187431472E0
3.708847069E0,-1.992200613E0,2.045143127E0,2.973546982E0,4.122311893E0
3.717082685E0,-2.202961922E0,2.483566284E0,4.712909698E0,5.764777580E0
3.725292992E0,-1.740259051E0,3.162624359E0,5.746734619E0,6.786431550E0
3.733503262E0,-1.080250502E0,4.078649521E0,6.128957748E0,7.440863266E0
3.741733031E0,-4.339560270E-1,4.763611794E0,5.842285156E0,7.550669573E0
3.749950185E0,-6.910872459E-2,4.940813065E0,4.669343948E0,6.798469141E0
3.758160454E0,7.131009102E-1,4.906951904E0,2.443078756E0,5.527687013E0
3.766368838E0,1.458860159E0,4.872140884E0,-2.103081942E-1,5.090212107E0
3.774577531E0,1.723367691E0,4.497219086E0,-2.134292126E0,5.267843827E0
3.782798338E0,1.222856283E0,3.591148376E0,-2.125579357E0,4.348541336E0
3.791004915E0,1.621267796E-1,2.363717079E0,-1.065288782E0,2.597745891E0
3.799222454E0,-1.160260081E0,1.672666550E0,-1.100214720E-1,2.038656805E0
3.807431646E0,-1.870913386E0,1.248148918E0,2.690970898E-2,2.249203582E0
3.815642377E0,-2.017003059E0,1.245471954E0,-3.232544065E-1,2.392487229E0
3.823870569E0,-1.808076382E0,1.591641426E0,-1.105682969E0,2.650471177E0
3.832085261E0,-1.101884365E0,2.123628616E0,-1.824444652E0,3.008744911E0
3.840291454E0,-2.519783974E-1,3.000472069E0,-2.078857422E0,3.658958039E0
3.848497684E0,4.529076815E-1,4.689585686E0,-1.222725391E0,4.867483606E0
3.856703838E0,2.190676928E-1,6.932747841E0,3.306314945E-1,6.944083846E0
3.864924992E0,-1.007016778E0,8.691616058E0,1.387192726E0,8.859039234E0
3.873131300E0,-2.777342796E0,1.026218987E1,1.650149107E0,1.075867863E1
3.881338376E0,-4.834197521E0,1.079976082E1,6.236007214E-1,1.184876269E1
3.889544492E0,-6.762493134E0,1.006542397E1,-1.464631200E0,1.221430381E1
3.897750992E0,-7.810467243E0,8.653448105E0,-3.298808813E0,1.211477207E1
3.905978299E0,-7.803457260E0,6.576880455E0,-5.444012642E0,1.156661469E1
3.914192761E0,-6.564940453E0,4.989604950E0,-7.650654316E0,1.124842710E1
3.922400184E0,-4.795668602E0,3.546550751E0,-9.155711174E0,1.092719116E1
3.930606992E0,-2.999952793E0,2.241821289E0,-8.828963280E0,9.590415635E0
3.938814761E0,-1.540200710E0,1.094014168E0,-7.831492901E0,8.056138423E0
3.947032376E0,-6.955826283E-1,2.617006302E-1,-7.083496571E0,7.122376435E0
3.955239107E0,-3.089754581E-1,-3.211870193E-1,-6.647762775E0,6.662685409E0
3.963470761E0,-2.081264257E-1,-5.083017349E-1,-6.598050117E0,6.620872497E0
3.971676184E0,-3.278124332E-2,-4.653167725E-1,-6.519130230E0,6.535797829E0
3.979882184E0,3.879625797E-1,-6.606779099E-1,-6.224042892E0,6.271022260E0
3.988107761E0,1.110737085E0,-9.505615234E-1,-6.272226810E0,6.440351950E0
3.996322607E0,1.870393991E0,-1.515365601E0,-6.352216721E0,6.793037896E0
4.004532414E0,2.290538311E0,-2.177242279E0,-6.193026066E0,6.952734825E0
4.012741761E0,2.388334274E0,-2.906249523E0,-5.865534306E0,6.968136020E0
4.020950876E0,2.211961269E0,-3.570299625E0,-5.401000500E0,6.841828591E0
4.029171645E0,1.439580321E0,-4.165952682E0,-4.575979710E0,6.353514268E0
4.037380876E0,8.724503517E-1,-4.619112968E0,-4.058301926E0,6.210248687E0
4.045599684E0,1.499758959E-1,-4.885293007E0,-3.915098190E0,6.262313819E0
4.053809530E0,-6.078175902E-1,-5.094984055E0,-4.022028446E0,6.519587223E0
4.062019145E0,-1.543189406E0,-5.157013893E0,-4.552559376E0,7.049966149E0
4.070248876E0,-2.422104836E0,-5.141157150E0,-5.245731831E0,7.734066920E0
4.078467183E0,-3.058580875E0,-5.087100029E0,-5.559329033E0,8.132628294E0
4.086675106E0,-3.220758915E0,-5.034700394E0,-5.876041889E0,8.381489386E0
4.094884876E0,-3.659842253E0,-4.995000839E0,-6.270423412E0,8.812643671E0
4.103094222E0,-3.801881313E0,-5.013174057E0,-6.484375954E0,9.035117440E0
4.111315376E0,-3.718853474E0,-5.163890839E0,-6.309206009E0,8.961122709E0
4.119524337E0,-3.493398190E0,-5.361748219E0,-5.880928040E0,8.691230608E0
4.127733337E0,-3.133171558E0,-5.510643482E0,-5.206460953E0,8.203120824E0
4.135942183E0,-2.762440681E0,-5.522926807E0,-4.432219505E0,7.601208376E0
4.144150799E0,-2.575764656E0,-5.375001907E0,-3.813827038E0,7.076050151E0
4.152378414E0,-2.474265337E0,-5.066527367E0,-3.377778292E0,6.572752445E0
4.160592722E0,-2.348398924E0,-4.612261772E0,-3.091467381E0,6.028690299E0
4.168800452E0,-2.001123667E0,-3.838791370E0,-2.769256592E0,5.139026872E0
4.177008914E0,-1.542029619E0,-2.507234573E0,-2.343455076E0,3.762427707E0
4.185217221E0,-6.947270632E-1,-4.790973663E-2,-2.224605799E0,2.331053838E0
4.193437221E0,3.989861012E-1,3.691921234E0,-2.122609615E0,4.277258922E0
4.201645375E0,1.619094610E0,7.381551743E0,-1.230404854E0,7.656544233E0
4.209878837E0,6.895112991E-1,9.744234085E0,7.255308628E-1,9.795505029E0
4.218085798E0,-1.203752518E0,1.097214222E1,4.162046432E0,1.179659084E1
4.226294452E0,-3.431750536E0,1.130405521E1,7.369668484E0,1.392374194E1
4.234540067E0,-4.544431210E0,1.050983906E1,9.748667717E0,1.503812137E1
4.242755337E0,-3.610081911E0,7.216652870E0,9.958045006E0,1.281699771E1
4.250962452E0,-1.214020491E0,2.623157501E0,7.961531639E0,8.469993333E0
4.259169221E0,-3.529989719E-2,-2.417297363E-1,5.450846195E0,5.456317769E0
4.267376221E0,4.018170834E-1,-1.787189960E0,2.897639751E0,3.428092918E0
4.275596606E0,4.382256269E-1,-2.248802185E0,5.573666096E-1,2.357925042E0
4.283804452E0,-6.969285011E-2,-1.471992016E0,-1.513687968E0,2.112550320E0
4.292022606E0,-8.444892168E-1,-3.272228241E-1,-3.418697834E0,3.536627164E0
4.300231798E0,-1.584334016E0,8.842020035E-1,-5.469434738E0,5.762520613E0
4.308441413E0,-1.813427091E0,2.068247795E0,-7.139960289E0,7.651483496E0
4.316668952E0,-2.304636717E0,3.444090843E0,-7.136632919E0,8.252553639E0
4.324885529E0,-2.794713020E0,5.399518967E0,-6.412573338E0,8.836646578E0
4.333095106E0,-3.000316143E0,8.039819717E0,-5.828148842E0,1.037342359E1
4.341303952E0,-3.291788816E0,1.067479229E1,-5.482509613E0,1.244367211E1
4.349514067E0,-4.154075146E0,1.358203793E1,-4.895788193E0,1.502320993E1
4.357741144E0,-6.496265411E0,1.430583286E1,-3.769351006E0,1.615754700E1
4.365951913E0,-6.805521011E0,1.294434547E1,1.438636017E1,2.051434997E1
4.374161221E0,-8.599393845E0,7.749521255E0,1.297565365E1,1.738885395E1
4.382370028E0,-1.069239044E1,3.532344818E0,7.005066872E-1,1.128252555E1
4.390577759E0,-6.160000801E0,-8.549785614E-2,-5.522599220E0,8.273573708E0
4.398804682E0,-2.951691151E0,-2.807792187E0,-6.923184872E0,8.032849207E0
4.407021451E0,-1.697660208E0,-5.327492237E0,-5.715867996E0,7.995959646E0
4.415229874E0,-1.144136786E0,-7.104444981E0,-4.246044636E0,8.355302659E0
4.423438721E0,-1.048435926E0,-8.359296799E0,-3.061984539E0,8.963972901E0
4.431648374E0,-1.087576032E0,-9.108261108E0,-2.246138096E0,9.443959889E0
4.439871105E0,-1.051004887E0,-9.345124245E0,-2.015537500E0,9.617606243E0
4.448081644E0,-8.424022794E-1,-9.149881363E0,-2.192990541E0,9.446649039E0
4.456315567E0,-5.733262897E-1,-8.163810730E0,-2.913742304E0,8.687140087E0
4.464523105E0,-4.154498577E-1,-6.200751781E0,-5.056231499E0,8.011703827E0
4.472730028E0,-1.152316332E0,-3.687103271E0,-8.333938599E0,9.185700628E0
4.480956413E0,-2.295018196E0,-9.592275620E-1,-1.083588028E1,1.111771233E1
4.489171028E0,-3.309446812E0,1.284565926E0,-1.101970100E1,1.157740722E1
4.497377374E0,-3.747039318E0,3.251131058E0,-8.767512321E0,1.007369987E1
4.505584797E0,-3.752389193E0,5.813396454E0,-4.804018021E0,8.423454881E0
4.513791028E0,-3.431505203E0,7.224965096E0,-1.285219312E0,8.101057787E0
4.522012605E0,-3.303720951E0,7.467636108E0,4.470803738E-1,8.178021890E0
4.530222451E0,-3.331630707E0,6.382251740E0,1.335749269E0,7.322371647E0
4.538442874E0,-2.895355701E0,4.500544548E0,1.836519957E0,5.657808005E0
4.546653335E0,-2.298280954E0,2.294160843E0,2.131900072E0,3.884619317E0
4.554864643E0,-1.550614119E0,2.838973999E-1,1.921178102E0,2.485141280E0
4.563094758E0,-1.051332474E0,-1.126225471E0,1.716990113E0,2.306889428E0
4.571312374E0,-8.844007254E-1,-2.361578465E0,1.535509348E0,2.952457696E0
4.579522605E0,-8.245440722E-1,-3.095203400E0,1.201902747E0,3.421217214E0
4.587731720E0,-7.285090685E-1,-3.424347401E0,6.505918503E-1,3.560919873E0
4.595942105E0,-4.912830591E-1,-3.428037167E0,2.870806456E-1,3.474940741E0
4.604163297E0,-3.751887083E-1,-3.156150341E0,-4.525148869E-2,3.178694581E0
4.612373412E0,-2.296576500E-1,-2.663628101E0,-3.540920019E-1,2.696857142E0
4.620582797E0,7.267069817E-2,-2.140853405E0,-6.368095875E-1,2.234739534E0
4.628790527E0,5.583395958E-1,-1.644709110E0,-1.092743039E0,2.052047395E0
4.636999066E0,1.094913721E0,-1.319042206E0,-1.518019438E0,2.289779773E0
4.645227797E0,1.401255131E0,-1.085428238E0,-1.816249490E0,2.537800743E0
4.653444412E0,1.510232449E0,-1.014328957E0,-1.931633830E0,2.653464628E0
4.661652720E0,1.463946819E0,-9.868421555E-1,-1.964622617E0,2.641351880E0
4.669861027E0,1.240351439E0,-1.027425766E0,-1.823193908E0,2.432716881E0
4.678068720E0,8.954629898E-1,-9.759378433E-1,-1.639180660E0,2.107420669E0
4.686288027E0,2.514567375E-1,-7.914495468E-1,-1.369583011E0,1.601680523E0
4.694496143E0,-2.931890488E-1,-5.687017441E-1,-9.468553662E-1,1.142767070E0
4.702730758E0,-5.143222809E-1,-2.083663940E-1,-4.184496999E-1,6.950137510E-1
4.710938835E0,-4.573190212E-1,6.253623962E-2,1.039131880E-1,4.731272758E-1
4.719146989E0,-2.786872387E-1,2.609043121E-1,5.866597295E-1,6.999337649E-1
4.727374758E0,-5.372953415E-2,3.363075256E-1,9.976965785E-1,1.054223922E0
4.735590489E0,-7.069706917E-2,3.315620422E-1,1.355280638E0,1.397038679E0
4.743799181E0,-6.126165390E-2,1.725559235E-1,1.610451818E0,1.620828058E0
4.752007912E0,1.007139683E-1,4.900169373E-2,1.724910617E0,1.728543059E0
4.760215604E0,1.282000542E-2,2.789974213E-2,2.817960739E0,2.818128009E0
4.768435642E0,-3.104913235E-1,9.738445282E-2,5.792564392E0,5.801697237E0
4.776643142E0,7.244420052E-1,-2.335510254E-1,6.054021358E0,6.101683121E0
4.784859604E0,1.112231255E0,-4.004354477E-1,3.774204254E0,3.954999957E0
4.793065758E0,1.112626076E0,-2.003555298E-1,9.075255394E-1,1.449717810E0
4.801272950E0,1.134340286E0,-7.448387146E-2,-8.313074112E-1,1.408313795E0
4.809499758E0,9.820978642E-1,8.439922333E-2,-1.667469978E0,1.937032672E0
4.817712373E0,5.580973625E-1,3.458929062E-1,-1.757186174E0,1.875851225E0
4.825919719E0,-1.905727386E-2,5.837764740E-1,-1.296710968E0,1.422187571E0
4.834126450E0,-3.425400257E-1,9.060935974E-1,-4.735851288E-1,1.078249577E0
4.842334604E0,-5.494123697E-1,1.442954063E0,3.560059071E-1,1.584522195E0
4.850542950E0,-5.049635172E-1,2.105226517E0,1.281754971E0,2.515921828E0
4.858749642E0,-3.016335964E-1,2.872018814E0,2.321013212E0,3.704939571E0
4.866955911E0,-1.203947067E-1,3.858711243E0,3.491611004E0,5.205333298E0
4.875161450E0,7.755422592E-2,4.891478539E0,4.725934505E0,6.801987496E0
4.883366950E0,3.110101223E-1,5.538706779E0,4.889678955E0,7.394792787E0
4.891599257E0,8.424122334E-1,5.772214890E0,3.710139275E0,6.913266705E0
4.899810373E0,1.566276550E0,6.132231712E0,1.078001499E0,6.420247288E0
4.908016180E0,2.117935181E0,6.384160995E0,-1.129704356E0,6.820512662E0
4.916220911E0,1.709513903E0,6.402276993E0,-2.682007790E0,7.148758931E0
4.924426411E0,-5.596182346E-1,5.508221626E0,-2.718913317E0,6.168157559E0
4.932640103E0,-2.587482452E0,4.158031464E0,-1.394668937E0,5.092091175E0
4.940844565E0,-2.997953892E0,3.009490013E0,-4.395272732E-1,4.270590346E0
4.949072565E0,-2.730589867E0,2.164828300E0,-2.586612701E-1,3.494210675E0
4.957276488E0,-2.139201641E0,1.568333626E0,-3.587979972E-1,2.676675181E0
4.965481949E0,-1.263376594E0,1.439489365E0,-6.267782450E-1,2.015217362E0
4.973704026E0,-2.020657063E-1,1.971429825E0,-8.718633652E-1,2.165066242E0
4.981915988E0,5.857365131E-1,2.993947029E0,-8.025585413E-1,3.154505712E0
4.990119526E0,1.112927914E0,4.459555626E0,5.025521517E-1,4.623721833E0
4.998323603E0,3.338923454E-1,5.504820824E0,2.484863758E0,6.048891162E0
5.006528334E0,-1.113067985E0,7.228543282E0,4.019302368E0,8.345390934E0
5.014741603E0,-4.310824394E0,8.776104927E0,3.909433603E0,1.053028469E1
5.022945757E0,-8.770886421E0,9.320654869E0,1.131156445E0,1.284844624E1
5.031160218E0,-1.189951992E1,8.735051155E0,-2.077945232E0,1.490696312E1
5.039365372E0,-1.296085167E1,7.489166260E0,-4.838813305E0,1.573166874E1
5.047571026E0,-1.123756409E1,5.347717285E0,-7.150389671E0,1.435301359E1
5.055793026E0,-7.499367237E0,3.319367409E0,-7.826259613E0,1.133618315E1
5.064004795E0,-4.398250580E0,1.966519356E0,-7.296549797E0,8.743651725E0
5.072209333E0,-2.599535942E0,1.272742271E0,-7.214290619E0,7.773252160E0
5.080413795E0,-1.243898034E0,9.313030243E-1,-7.683620453E0,7.839172846E0
5.088617756E0,-2.755386829E-1,6.704139709E-1,-8.306828499E0,8.338391701E0
5.096831256E0,3.305246830E-1,2.510948181E-1,-8.436783791E0,8.446988570E0
5.105035141E0,7.932554483E-1,1.035499573E-2,-8.066519737E0,8.105436577E0
5.113240372E0,1.237762213E0,-5.210638046E-1,-7.080821037E0,7.207051363E0
5.121444756E0,1.813116431E0,-1.007737160E0,-6.317416191E0,6.649261065E0
5.129651026E0,2.308764935E0,-1.645659447E0,-6.094310284E0,6.721548064E0
5.137873179E0,2.548897743E0,-2.434033871E0,-5.900443077E0,6.872890883E0
5.146085141E0,2.692693949E0,-3.302269459E0,-5.602973938E0,7.039098041E0
5.154288449E0,2.631413698E0,-3.864848137E0,-5.133067608E0,6.943325733E0
5.162492987E0,1.965034008E0,-4.197476864E0,-4.434673786E0,6.414553941E0
5.170699525E0,1.211180925E0,-4.420754433E0,-3.830584764E0,5.973559126E0
5.178913025E0,1.125133038E-1,-4.514636040E0,-3.554914236E0,5.747348349E0
5.187117756E0,-9.713002443E-1,-4.478208065E0,-3.628686190E0,5.845094961E0
5.195349564E0,-2.107260942E0,-4.225073338E0,-4.149124146E0,6.285461364E0
5.203554679E0,-2.930994987E0,-4.094195366E0,-4.814493179E0,6.966527965E0
5.211759871E0,-3.471278906E0,-3.997339964E0,-5.439113140E0,7.590286937E0
5.219983102E0,-3.895309448E0,-3.924586058E0,-6.010184288E0,8.166892102E0
5.228197333E0,-4.216321945E0,-4.028965950E0,-6.410542011E0,8.666313302E0
5.236403987E0,-4.483208656E0,-4.316517830E0,-6.758303165E0,9.187281845E0
5.244611564E0,-4.479273319E0,-4.769068241E0,-6.855086803E0,9.476292336E0
5.252818294E0,-4.200497150E0,-5.297452927E0,-6.622491837E0,9.463856611E0
5.261033987E0,-3.627976418E0,-5.770812988E0,-5.906656265E0,9.019594429E0
5.269242217E0,-3.003016472E0,-6.106716156E0,-4.951135635E0,8.415689765E0
5.277458948E0,-2.583690405E0,-6.484148979E0,-3.832748890E0,7.963015016E0
5.285665448E0,-2.301700354E0,-6.712303162E0,-2.943681479E0,7.682323795E0
5.293870833E0,-2.178890467E0,-6.761470795E0,-2.396443844E0,7.497199082E0
5.302093294E0,-2.195831537E0,-6.338392258E0,-2.021852970E0,7.006053239E0
5.310239333E0,-1.899619102E0,-5.666427612E0,-1.344651222E0,6.125768648E0
5.318445525E0,-1.034137249E0,-4.134681702E0,6.853127480E-1,4.316791191E0
5.326652217E0,1.033331633E0,-8.090057373E-1,3.527416229E0,3.763632527E0
5.334858256E0,3.601526737E0,4.385826111E0,6.783497334E0,8.844337261E0
5.343073602E0,4.448083401E0,8.367863655E0,9.419360161E0,1.336154684E1
5.351281255E0,2.919296741E0,9.838359833E0,9.596740723E0,1.405037545E1
5.359489679E0,-4.869387746E-1,9.864664078E0,6.818592072E0,1.200174590E1
5.367697563E0,-3.455576897E0,9.847334862E0,4.666244984E0,1.143174780E1
5.375905948E0,-5.016277313E0,9.192725182E0,4.033486843E0,1.122222128E1
5.384133102E0,-4.396274567E0,7.256942749E0,4.100910664E0,9.423795223E0
5.392347601E0,-2.824722528E0,4.176938057E0,3.411998272E0,6.088316771E0
5.400554332E0,-2.177877665E0,1.870551109E0,1.942241192E0,3.466181389E0
5.408761448E0,-2.895539284E0,1.384181976E0,4.704885483E-1,3.243681082E0
5.416969601E0,-2.473672390E0,2.112532616E0,-4.941039085E-1,3.290286890E0
5.425184486E0,-1.503245354E0,3.690987587E0,-2.201858044E0,4.553165361E0
5.433390678E0,-9.320600629E-1,5.702350616E0,-4.713109970E0,7.456469949E0
5.441623717E0,-1.236972928E0,8.097785950E0,-7.229446411E0,1.092561828E1
5.449832294E0,-2.188242912E0,1.063646412E1,-9.144599915E0,1.419670679E1
5.458039563E0,-4.287906647E0,1.315433884E1,-9.262977600E0,1.665009092E1
5.466264294E0,-7.989523411E0,1.358410263E1,-8.126839638E0,1.773149320E1
5.474480178E0,-1.008774281E1,1.137435055E1,5.236212730E0,1.607968685E1
5.482688986E0,-8.557924271E0,6.395690918E0,5.581511497E0,1.205388737E1
5.490898524E0,-7.963338852E0,3.027424812E0,2.406742573E-1,8.522792428E0
5.499106101E0,-4.631579399E0,-5.906419754E-1,-2.580600739E0,5.334780768E0
5.507322832E0,-2.279155970E0,-2.885251999E0,-4.776311398E0,6.027634826E0
5.515530909E0,-9.352979660E-1,-4.444402218E0,-5.974355698E0,7.504693156E0
5.523737370E0,-4.025077820E-1,-6.363221645E0,-5.198155880E0,8.226386009E0
5.531944255E0,-1.680979133E-1,-7.533220291E0,-4.354456902E0,8.702813325E0
5.540152601E0,-1.186929643E-1,-8.534105301E0,-3.688258648E0,9.297757426E0
5.548378293E0,-1.025663316E-1,-9.081705093E0,-3.436146498E0,9.710560746E0
5.556594793E0,9.078979492E-3,-9.237591743E0,-3.580811024E0,9.907340270E0
5.564803909E0,4.864074588E-1,-8.839100838E0,-3.836692333E0,9.648134737E0
5.573013601E0,9.960222840E-1,-7.352838993E0,-4.353517056E0,8.602872334E0
5.581222408E0,1.596331358E0,-4.558689117E0,-6.287649632E0,7.928711003E0
5.589439332E0,1.345729113E0,-4.553956985E-1,-9.321078300E0,9.428725936E0
5.597646562E0,6.884992719E-1,3.442812920E0,-1.060542774E1,1.117148556E1
5.605852793E0,5.978845358E-1,5.909363747E0,-9.479300499E0,1.118638386E1
5.614060678E0,4.189648032E-1,7.269220352E0,-7.658680916E0,1.056752049E1
5.622268793E0,5.699226856E-1,7.288519859E0,-5.404488564E0,9.091525188E0
5.630493485E0,4.579141140E-1,6.726076126E0,-2.785892010E0,7.294585641E0
5.638708331E0,1.150169075E-1,5.470728874E0,-8.498890400E-1,5.537545908E0
5.646916177E0,-6.115249395E-1,3.567642212E0,-1.040923834E0,3.766371746E0
5.655123062E0,-6.188576221E-1,1.332709312E0,-1.047174692E0,1.804348554E0
5.663328254E0,-5.841389298E-1,-8.262739182E-1,-1.268239617E0,1.622460663E0
5.671542562E0,-4.650462270E-1,-2.625229359E0,-1.323070526E0,2.976342184E0
5.679747600E0,-3.744649291E-1,-4.001887321E0,-1.397854686E0,4.255505122E0
5.687979139E0,-1.669545174E-1,-4.939475060E0,-1.437860012E0,5.147205950E0
5.696184677E0,8.741617203E-2,-5.384568214E0,-1.531560183E0,5.598829613E0
5.704390985E0,4.213174582E-1,-5.311298847E0,-1.578922749E0,5.557013667E0
5.712615023E0,9.682574272E-1,-4.510916233E0,-1.654560566E0,4.901373111E0
5.720828600E0,1.532756329E0,-3.030943394E0,-1.823625088E0,3.855070464E0
5.729033369E0,1.945321321E0,-1.283144951E0,-2.041593313E0,3.098199359E0
5.737239254E0,2.238080978E0,4.688377380E-1,-2.334972382E0,3.268166353E0
5.745444869E0,2.385341644E0,1.671838760E0,-2.465516090E0,3.816237570E0
5.753659562E0,2.049191952E0,2.603013039E0,-2.422017097E0,4.103782567E0
5.761866139E0,1.121055365E0,2.962938309E0,-1.866342306E0,3.676819571E0
5.770073139E0,-8.025956154E-1,2.927286148E0,1.002233028E0,3.196503552E0
5.778279985E0,-2.584128618E0,2.228360176E0,5.291472435E0,6.296267968E0
5.786485408E0,-2.516655445E0,9.474029541E-1,6.808004856E0,7.319839965E0
5.794708369E0,-1.653147221E0,-1.322040558E-1,5.424954891E0,5.672786724E0
5.802920715E0,-1.402365923E0,-6.888675690E-1,3.595456600E0,3.920264898E0
5.811126177E0,-1.936356306E0,-8.823595047E-1,2.840828657E0,3.549414247E0
5.819331869E0,-2.666265488E0,-6.918697357E-1,-3.384441137E-1,2.775283733E0
5.827537831E0,-2.797945499E0,-4.526987076E-1,-3.898370028E0,4.819826139E0
5.835751754E0,-2.694030762E0,4.110336304E-2,-3.440256119E0,4.369765828E0
5.843956215E0,-2.313791037E0,2.030410767E-1,-2.246002913E0,3.231003516E0
5.852160715E0,-2.200326681E0,1.275215149E-1,-8.806827068E-1,2.373457661E0
5.860366215E0,-2.127326965E0,-1.723575592E-2,9.504675269E-1,2.330065580E0
5.868574330E0,-1.565339804E0,-2.676124573E-1,1.797231913E0,2.398321846E0
5.876797292E0,-5.470542908E-1,-5.005455017E-1,1.664870977E0,1.822528345E0
5.885010984E0,1.994097233E-1,-7.431211472E-1,8.820220828E-1,1.170451294E0
5.893217830E0,8.342409134E-2,-9.967632294E-1,1.047980189E-1,1.005723192E0
5.901424100E0,1.745066643E-1,-1.381465912E0,-2.989301682E-1,1.424169894E0
5.909628369E0,3.376696110E-1,-1.674139977E0,-4.544697404E-1,1.767288367E0
5.917840753E0,4.635921717E-1,-1.970410824E0,-5.127471685E-1,2.088144194E0
5.926046753E0,7.744245529E-1,-1.963848114E0,-5.646880269E-1,2.185247210E0
5.934278253E0,1.168166399E0,-1.606748104E0,-6.991863847E-1,2.105970989E0
5.942484215E0,1.622684598E0,-8.635902405E-1,-9.296644926E-1,2.059895501E0
5.950690830E0,1.984259129E0,1.431827545E-1,-1.254065633E0,2.351694326E0
5.958913215E0,2.210212231E0,9.993505478E-1,-1.334958434E0,2.768727802E0
5.967127099E0,2.309920549E0,1.925342560E0,-1.353085279E0,3.297501583E0
5.975333061E0,2.327654362E0,2.680480957E0,-1.201181054E0,3.747771193E0
5.983539868E0,2.206025362E0,3.284038544E0,-8.443706632E-1,4.045295894E0
5.991747830E0,2.044245958E0,3.875845909E0,-5.553928018E-1,4.416965498E0
5.999965253E0,1.768921852E0,4.416122437E0,-3.192130327E-1,4.767926054E0
6.008173176E0,1.544764280E0,4.817365646E0,-2.184059471E-1,5.063695253E0
6.016382099E0,1.534331083E0,5.018365860E0,-2.034909725E-1,5.251626068E0
6.024589945E0,1.686691523E0,4.916888237E0,-3.724125028E-1,5.211469016E0
6.032797907E0,1.882896662E0,4.503383636E0,-4.665048122E-1,4.903406036E0
6.041021753E0,2.305659533E0,3.798964500E0,-4.252944887E-1,4.464198983E0
6.049236907E0,2.569340467E0,3.149389267E0,8.951597214E-1,4.161907510E0
6.057446368E0,2.800903320E-1,2.973659515E0,1.312086105E1,1.345652616E1
6.065655291E0,2.023705006E0,3.132280350E0,9.053723335E0,9.791652995E0
6.073865060E0,1.893450499E0,2.285059929E0,2.220519930E-1,2.975896631E0
6.082084830E0,-6.143841743E-1,1.825313568E0,-8.876643181E-1,2.120656850E0
6.090296253E0,-1.991530418E0,2.056816101E0,-3.303240836E-1,2.881978466E0
6.098506022E0,-1.832098722E0,2.733915329E0,-3.030552268E-1,3.304954043E0
6.106714906E0,-1.119463205E0,3.305917740E0,-5.488633513E-1,3.533205478E0
6.114923637E0,-6.278281212E-1,3.243970871E0,-7.537177801E-1,3.389041996E0
6.123150137E0,-8.087298274E-1,3.488130569E0,-2.350001335E-1,3.588359495E0
6.131368137E0,-1.357669115E0,4.168893814E0,1.927000761E0,4.789182915E0
6.139577214E0,-2.602648973E0,6.180321693E0,3.818136215E0,7.716755929E0
6.147786945E0,-4.362818718E0,8.186075211E0,3.675137997E0,9.977607620E0
6.155996137E0,-6.408676147E0,9.764507294E0,2.326956987E0,1.190930147E1
6.164213560E0,-8.681020737E0,1.039365101E1,-2.430930138E-1,1.354426803E1
6.172423099E0,-1.115413284E1,1.000374889E1,-4.480573654E0,1.563858087E1
6.180659214E0,-1.091858578E1,8.079754829E0,-7.007863998E0,1.528424389E1
6.188870060E0,-7.465708256E0,5.293110847E0,-9.646978378E0,1.329729349E1
6.197079521E0,-4.367296219E0,3.175674438E0,-1.127157784E1,1.249826593E1
6.205304368E0,-2.077879906E0,1.744875908E0,-1.215385723E1,1.245304872E1
6.213520329E0,-4.995334446E-1,7.563743591E-1,-1.220554066E1,1.223915269E1
6.221729175E0,3.983390927E-1,6.945610046E-2,-1.133154297E1,1.133875497E1
6.229936944E0,1.138972521E0,-4.084749222E-1,-1.044157982E1,1.051145562E1
6.238145291E0,1.505774140E0,-7.149391174E-1,-8.621478081E0,8.781137626E0
6.246362444E0,1.681869745E0,-6.755518913E-1,-6.688195229E0,6.929430829E0
6.254571406E0,2.069465160E0,-6.604151726E-1,-5.041496754E0,5.489583205E0
6.262779329E0,2.611117125E0,-8.802943230E-1,-4.000671864E0,4.857800541E0
6.270987598E0,3.173104763E0,-1.456820965E0,-3.122696638E0,4.684245452E0
6.279194329E0,3.580463648E0,-2.109886169E0,-3.316166639E0,5.316794218E0
6.287416944E0,3.271722555E0,-2.734726906E0,-3.577532768E0,5.566115381E0
6.295630906E0,3.093619585E0,-3.479440689E0,-3.124053717E0,5.606844145E0
6.303837521E0,2.730868816E0,-4.117238998E0,-2.886665344E0,5.722074648E0
6.312045752E0,1.977211952E0,-4.453494072E0,-2.886066914E0,5.663246311E0
6.320252521E0,8.782054186E-1,-4.370584488E0,-3.085516930E0,5.421592778E0
6.328468213E0,-5.816156864E-1,-4.070945740E0,-3.365804911E0,5.314086819E0
6.336676867E0,-1.937599421E0,-3.736930370E0,-4.095911026E0,5.873280790E0
6.344884752E0,-3.195194244E0,-3.526939392E0,-5.009912014E0,6.909977288E0
6.353092790E0,-3.985398769E0,-3.435901165E0,-5.766102791E0,7.806200200E0
6.361300252E0,-4.597124100E0,-3.379718304E0,-6.281321049E0,8.485931883E0
6.369524290E0,-4.957439899E0,-3.225924969E0,-6.525197983E0,8.806872940E0
6.377739636E0,-4.974698067E0,-3.161510944E0,-6.475953579E0,8.756754368E0
6.385947367E0,-5.244437218E0,-2.999080658E0,-6.658436775E0,8.990738947E0
6.394154559E0,-5.270393372E0,-2.906280518E0,-6.512199879E0,8.867483296E0
6.402361213E0,-4.980390072E0,-2.925098419E0,-6.139030933E0,8.429008651E0
6.410597098E0,-4.471378326E0,-3.123278618E0,-5.564121246E0,7.791504265E0
6.418803751E0,-3.757377386E0,-3.395500183E0,-4.854071140E0,7.014934993E0
6.427035674E0,-3.096225262E0,-3.686302662E0,-4.178999901E0,6.374910067E0
6.435243059E0,-2.532379389E0,-3.911971092E0,-3.546032429E0,5.855835481E0
6.443450790E0,-2.177124023E0,-4.020346165E0,-3.044479847E0,5.492896307E0
6.451675867E0,-1.865778923E0,-3.924345493E0,-2.711762667E0,5.122038198E0
6.459893520E0,-1.632398963E0,-3.592711926E0,-2.478497267E0,4.659962881E0
6.468102905E0,-1.336873174E0,-3.087525368E0,-2.075080872E0,3.952973995E0
6.476312520E0,-8.566601276E-1,-2.284641743E0,-1.652778387E0,2.947054608E0
6.484521328E0,-1.864486933E-1,-8.451099396E-1,-9.767982960E-1,1.305032121E0
6.492740328E0,1.057065010E0,1.442945480E0,-5.028762817E-1,1.858053457E0
6.500950136E0,1.577268481E0,3.728394508E0,3.275713921E-1,4.061527359E0
6.509160751E0,1.236256242E0,5.900845528E0,1.759250641E0,6.280387747E0
6.517369136E0,1.572068930E-1,8.239300728E0,4.390606880E0,9.337463214E0
6.525578213E0,-8.741137385E-1,9.843820572E0,7.229906082E0,1.224485281E1
6.533824443E0,-1.050689936E0,1.011752224E1,8.786811829E0,1.344158725E1
6.542039597E0,-1.169435382E-1,8.593898773E0,8.925392151E0,1.239077871E1
6.550247097E0,1.525379539E0,5.729516029E0,8.404727936E0,1.028560102E1
6.558455482E0,2.632681847E0,2.777734756E0,7.365108490E0,8.300099225E0
6.566663020E0,2.424206972E0,7.179822922E-1,6.070841789E0,6.576275393E0
6.574877866E0,1.414219737E0,-5.198965073E-1,4.364504337E0,4.617272783E0
6.583085174E0,2.950037718E-1,-1.149575233E0,2.260299444E0,2.552940270E0
6.591292212E0,-4.704946280E-1,-1.602986336E0,-3.758192062E-3,1.670612017E0
6.599499443E0,-9.398267269E-1,-1.960257530E0,-2.322154522E0,3.180925256E0
6.607706328E0,-1.565324306E0,-2.222391605E0,-4.347405910E0,5.127299755E0
6.615929789E0,-1.748339534E0,-2.342800140E0,-5.776622295E0,6.474161627E0
6.624144635E0,-1.501706123E0,-1.886119843E0,-6.769767761E0,7.186259450E0
6.632352597E0,-1.125822425E0,-7.167034149E-1,-6.908517838E0,7.036246061E0
6.640560366E0,-1.215380073E0,5.766096115E-1,-6.464602470E0,6.603083557E0
6.648768058E0,-2.076698780E0,1.945731163E0,-5.502716064E0,6.195032822E0
6.656984597E0,-3.077549934E0,3.229038239E0,-4.740377903E0,6.509161559E0
6.665192597E0,-3.845166206E0,4.689447403E0,-4.037188053E0,7.285266466E0
6.673425712E0,-4.626844883E0,6.509037971E0,-3.966889381E0,8.916921007E0
6.681633481E0,-4.901960373E0,8.636010170E0,-3.646785259E0,1.057870171E1
6.689841173E0,-5.518576145E0,1.033063602E1,-3.874279976E0,1.233640015E1
6.698064558E0,-6.503835678E0,1.125322723E1,-3.738698006E0,1.352452825E1
6.706280981E0,-7.597580910E0,9.809019089E0,-1.752052665E0,1.253035433E1
6.714487520E0,-3.058606863E0,5.835990906E0,9.967090607E0,1.194808608E1
6.722694712E0,-4.933305740E0,2.065459251E0,3.265561819E0,6.266380250E0
6.730902327E0,-5.505142689E0,3.991985321E-2,-3.648968220E0,6.604783016E0
6.739117289E0,-3.146301746E0,-2.639202118E0,-5.298827648E0,6.703892671E0
6.747324942E0,-1.611657381E0,-4.636433601E0,-5.314185619E0,7.234260491E0
6.755532442E0,-9.589818120E-1,-5.955132484E0,-5.129632950E0,7.918104775E0
6.763739827E0,-6.710228920E-1,-6.863181591E0,-4.662513256E0,8.324215467E0
6.771947212E0,-5.126756430E-1,-7.349611282E0,-4.290161133E0,8.525555986E0
6.780171135E0,-3.744108677E-1,-7.352074623E0,-4.252697945E0,8.501683631E0
6.788387096E0,-2.926304340E-1,-6.684951305E0,-4.699559689E0,8.176800584E0
6.796594788E0,-4.015249610E-1,-5.325056076E0,-5.413381577E0,7.604087361E0
6.804801558E0,-7.173162103E-1,-3.485727787E0,-6.462966919E0,7.377993097E0
6.813009327E0,-1.248551607E0,-1.279053688E0,-7.521430492E0,7.730897497E0
6.821224788E0,-1.891285062E0,9.156341553E-1,-7.188097954E0,7.488931652E0
6.829433673E0,-3.450774670E0,3.654234886E0,-6.389944077E0,8.129739462E0
6.837641058E0,-4.174501419E0,5.486022949E0,-4.653682709E0,8.317431854E0
6.845848481E0,-3.731250525E0,6.625711441E0,-2.146028519E0,7.901121501E0
6.854055865E0,-2.993130684E0,6.845726967E0,-1.253614426E-1,7.472517948E0
6.862279404E0,-2.183661938E0,5.814249992E0,1.048121810E0,6.298606335E0
6.870493711E0,-1.502130985E0,3.804626465E0,1.575245142E0,4.383261034E0
6.878701057E0,-1.399609923E0,1.766513824E0,1.308379412E0,2.606019132E0
6.886909173E0,-1.094445348E0,-1.201686859E-1,1.039802551E0,1.514410934E0
6.895116750E0,-8.624527454E-1,-1.602766037E0,8.056156635E-1,1.990402046E0
6.903332634E0,-8.396822214E-1,-2.775429249E0,5.355231762E-1,2.948704600E0
6.911539980E0,-8.476304412E-1,-3.573396206E0,3.187038898E-1,3.686354565E0
6.919772096E0,-7.729350924E-1,-3.940564156E0,1.161342859E-1,4.017332659E0
6.927980942E0,-6.779704094E-1,-3.919430733E0,-2.675888538E-1,3.986625759E0
6.936188865E0,-5.062632561E-1,-3.529703617E0,-5.785685182E-1,3.612457839E0
6.944413442E0,-1.670823097E-1,-3.038483620E0,-7.795796990E-1,3.141344252E0
6.952628442E0,1.278991699E-1,-2.366096020E0,-1.107561707E0,2.615618762E0
6.960835057E0,6.744656563E-1,-1.713309288E0,-1.722744942E0,2.521543728E0
6.969040942E0,1.269631863E0,-1.166266441E0,-2.352152348E0,2.916292706E0
6.977247019E0,1.770814896E0,-7.710275650E-1,-2.758917570E0,3.367773012E0
6.985461980E0,2.178173065E0,-5.381431580E-1,-2.856605768E0,3.632386609E0
6.993671134E0,2.501136780E0,-5.190572739E-1,-2.768727303E0,3.767088600E0
7.001879018E0,2.503603458E0,-7.434959412E-1,-2.516751766E0,3.626962358E0
7.010087672E0,2.307729721E0,-1.135485649E0,-2.010009527E0,3.264212374E0
7.018295865E0,1.344167948E0,-1.300518036E0,-1.266019464E0,2.258526049E0
7.026520326E0,2.370908260E-1,-1.106318474E0,-5.956408381E-1,1.278647971E0
7.034736326E0,-1.959319115E-1,-9.195213318E-1,-6.587934494E-2,9.424695654E-1
7.042943480E0,-3.169052601E-1,-6.525697708E-1,3.556438684E-1,8.079349051E-1
7.051150595E0,-2.892606258E-1,-4.343872070E-1,5.558020473E-1,7.624171240E-1
7.059356941E0,-2.589278221E-1,-2.265253067E-1,6.523600817E-1,7.375167848E-1
7.067571518E0,-2.206830978E-1,-1.486396790E-1,7.144532204E-1,7.623897874E-1
7.075779095E0,-2.025461197E-1,-1.888885498E-1,7.136667967E-1,7.655221169E-1
7.083985595E0,-6.064510345E-2,-1.916084290E-1,6.376299262E-1,6.685533198E-1
7.092192403E0,1.461675167E-1,-9.228134155E-2,4.861212969E-1,5.159406014E-1
7.100399441E0,5.002295971E-1,6.326675415E-2,2.495839000E-1,5.626050614E-1
7.108622133E0,8.929083347E-1,2.505674362E-1,-4.764020443E-2,9.286220563E-1
7.116837364E0,1.271614790E0,3.325271606E-1,-3.143318892E-1,1.351437392E0
7.125046326E0,1.486794949E0,4.021091461E-1,-4.773766994E-1,1.612494805E0
7.133253595E0,1.470211983E0,5.094213486E-1,-5.618777275E-1,1.654309513E0
7.141460633E0,1.357704639E0,6.544313431E-1,-5.488203764E-1,1.604009375E0
7.149676864E0,1.237924576E0,8.257560730E-1,-2.328685522E-1,1.506173333E0
7.157883133E0,1.180716395E0,1.014582634E0,2.191457748E-1,1.572098597E0
7.166115902E0,1.125458717E0,1.219603539E0,8.299697042E-1,1.855516054E0
7.174321710E0,1.332890987E0,1.293722153E0,1.752752066E0,2.553909786E0
7.182530095E0,1.571575880E0,1.313765526E0,2.565719128E0,3.283099945E0
7.190754287E0,1.771954536E0,9.674224854E-1,3.020924330E0,3.633416154E0
7.198969441E0,1.417391300E0,4.817066193E-1,3.060794830E0,3.407272275E0
7.207176287E0,7.747328281E-1,2.864360809E-1,2.902823925E0,3.018052903E0
7.215384133E0,2.914619446E-2,5.077018738E-1,2.706192970E0,2.753559712E0
7.223590710E0,-1.289675236E-1,1.402609825E0,2.543884516E0,2.907799060E0
7.231807979E0,-3.348820210E-1,2.557481766E0,2.237334251E0,3.414458010E0
7.240015364E0,-9.025141001E-1,3.709186554E0,1.269485593E0,4.022957900E0
7.248223056E0,-1.015506268E0,4.167213440E0,-1.461265087E-1,4.291651639E0
7.256430710E0,-8.705768585E-1,4.165701866E0,-7.970964909E-1,4.329704253E0
7.264638787E0,-5.014874935E-1,4.389155388E0,-4.919753075E-1,4.445021308E0
7.272861902E0,3.430185318E-1,4.873079300E0,1.009910107E-1,4.886180795E0
7.281075133E0,5.621707439E-1,5.129996300E0,7.622165084E-1,5.216691671E0
7.289281979E0,3.102850914E-2,4.926199913E0,1.022585154E0,5.031310838E0
7.297488556E0,-7.668483257E-1,4.015667915E0,6.559888721E-1,4.140527329E0
7.305697094E0,-1.631128669E0,3.084074974E0,-3.064304590E-1,3.502284798E0
7.313915517E0,-1.907792449E0,2.369909286E0,-1.135279894E0,3.247306960E0
7.322124479E0,-1.993052483E0,2.243599892E0,-1.617947817E0,3.409362669E0
7.330334325E0,-1.870946884E0,2.629489899E0,-1.974122763E0,3.783096622E0
7.338542171E0,-1.509705186E0,3.623757362E0,-1.978370428E0,4.395995532E0
7.346751094E0,-1.149632573E0,4.897899628E0,-1.607264996E0,5.281512717E0
7.354976286E0,-5.904229879E-1,5.859825134E0,-5.667992234E-1,5.916706116E0
7.363191440E0,-9.040572643E-1,6.806276321E0,9.038182497E-1,6.925287310E0
7.371400055E0,-2.429594040E0,7.604557991E0,1.964811802E0,8.221478873E0
7.379608979E0,-4.147465706E0,7.988833427E0,2.369598866E0,9.307949833E0
7.387816863E0,-6.510864735E0,7.871795654E0,1.952416182E0,1.040040650E1
7.396034632E0,-8.865107536E0,7.207899094E0,3.146247864E-1,1.142991381E1
7.404241286E0,-1.104093170E1,6.494888306E0,-2.128021955E0,1.298515400E1
7.412473709E0,-1.112549591E1,5.602746964E0,-3.956317186E0,1.306980790E1
7.420681671E0,-8.610060692E0,4.478588104E0,-6.062819481E0,1.144328085E1
7.428890363E0,-5.320650578E0,3.492738724E0,-7.460657120E0,9.806627913E0
7.437116863E0,-2.934771776E0,2.732974052E0,-7.842144489E0,8.808022635E0
7.445333401E0,-1.194560051E0,1.619336128E0,-7.150996208E0,7.428726000E0
7.453541632E0,-2.524212599E-1,8.555431366E-1,-6.990872383E0,7.047550442E0
7.461750209E0,1.173872948E-1,4.381332397E-1,-6.896704674E0,6.911604435E0
7.469959247E0,2.408442497E-1,-1.567859650E-1,-6.750585079E0,6.756699394E0
7.478178363E0,1.696077585E-1,-5.110034943E-1,-6.657231808E0,6.678968985E0
7.486387324E0,7.570981979E-4,-6.862039566E-1,-6.664095402E0,6.699331606E0
7.494596786E0,-1.944178343E-2,-1.155340672E0,-6.923788071E0,7.019546374E0
7.502804747E0,1.909247637E-1,-1.700537682E0,-7.243346214E0,7.442737739E0
7.511012593E0,4.414603114E-1,-2.446853638E0,-7.378252029E0,7.785922100E0
7.519236940E0,7.981504798E-1,-3.140207767E0,-7.437392235E0,8.112505918E0
7.527452939E0,8.863027692E-1,-3.857300758E0,-7.115819931E0,8.142431764E0
7.535662632E0,6.175040603E-1,-4.412844181E0,-6.606371403E0,7.968603902E0
7.543871632E0,3.103734851E-1,-4.820457458E0,-6.031159401E0,7.727096837E0
7.552080555E0,-1.136863828E-1,-5.133700371E0,-5.354417324E0,7.418732302E0
7.560296478E0,-5.394065380E-1,-5.329503536E0,-4.777870178E0,7.177925243E0
7.568505016E0,-1.009439826E0,-5.495376587E0,-4.158111572E0,6.964770236E0
7.576712516E0,-1.720466971E0,-5.546137810E0,-3.996237755E0,7.049082734E0
7.584919285E0,-2.383102179E0,-5.617140770E0,-4.169023037E0,7.390006732E0
7.593127939E0,-2.976506948E0,-5.698861122E0,-4.200619698E0,7.679962080E0
7.601353439E0,-3.279651165E0,-5.702939510E0,-4.239229202E0,7.826282326E0
7.609569055E0,-3.519023657E0,-5.785341263E0,-4.610084534E0,8.191860621E0
7.617777324E0,-3.755792856E0,-6.079046726E0,-4.944766521E0,8.689735613E0
7.625984478E0,-3.900665522E0,-6.358938217E0,-5.132412434E0,9.054995536E0
7.634192016E0,-3.812148094E0,-6.617271900E0,-4.977734089E0,9.115843195E0
7.642408478E0,-3.553090096E0,-6.816195011E0,-4.578240871E0,8.946801279E0
7.650616054E0,-3.171769857E0,-6.863034725E0,-4.045497417E0,8.574813060E0
7.658848401E0,-2.826036453E0,-6.670161247E0,-3.712913513E0,8.140224804E0
7.667055631E0,-2.239971638E0,-6.270205498E0,-3.474849701E0,7.510494682E0
7.675264324E0,-1.666609287E0,-4.762783051E0,-2.902741909E0,5.821305652E0
7.683489977E0,-9.314184189E-1,-1.486207485E0,-1.785843849E0,2.503116300E0
7.691707554E0,6.298280954E-1,3.768492699E0,3.249073029E0,5.015445762E0
7.699917785E0,3.900544167E0,8.159528732E0,1.251564789E1,1.544129515E1
7.708126554E0,5.262712479E0,9.563462257E0,1.545921707E1,1.892467557E1
7.716335631E0,4.313520908E0,8.821286201E0,1.168776321E1,1.526516825E1
7.724562208E0,1.935268402E0,6.995894432E0,6.425157547E0,9.693835783E0
7.732772708E0,1.014076471E-1,5.625754356E0,2.741931915E0,6.259200126E0
7.740981016E0,-7.634991407E-1,4.584115982E0,1.115608215E0,4.779291994E0
7.749189823E0,-9.200741053E-1,3.212607384E0,7.771646976E-1,3.430942659E0
7.757399746E0,-1.097003222E0,1.776443481E0,9.417099953E-1,2.290411584E0
7.765626708E0,-1.281746387E0,6.401290894E-1,6.290292740E-1,1.564709839E0
7.773843900E0,-1.672135949E0,-1.064491272E-2,1.184654236E-1,1.676360941E0
7.782052708E0,-2.533967495E0,-1.403894424E-1,-5.424184799E-1,2.595172108E0
7.790262515E0,-2.991039991E0,3.175258636E-2,-1.279399395E0,3.253335407E0
7.798472208E0,-3.275497913E0,4.444713593E-1,-2.626836777E0,4.222169208E0
7.806690246E0,-2.615617037E0,1.006902695E0,-3.890031099E0,4.794543510E0
7.814898823E0,-2.811551809E0,2.158189774E0,-4.821378708E0,5.984003620E0
7.823107785E0,-3.564509869E0,4.543365479E0,-4.972253323E0,7.620446416E0
7.831316515E0,-5.000705719E0,7.587122917E0,-5.392847061E0,1.056665942E1
7.839525592E0,-6.489128590E0,1.142414665E1,-6.336879730E0,1.458684206E1
7.847751246E0,-8.944597244E0,1.557580280E1,-7.261615753E0,1.937375844E1
7.855968477E0,-1.177323341E1,1.759909058E1,-6.518921852E0,2.215475922E1
7.864178169E0,-8.841910362E0,1.714573669E1,1.559028625E1,2.480348143E1
7.872387323E0,-9.940797806E0,8.461062431E0,2.496285439E-1,1.305646786E1
7.880596823E0,-6.906438828E0,2.884013176E0,-2.123095751E0,7.779714959E0
7.888814130E0,-3.830715418E0,-3.927307129E-1,-3.777517796E0,5.394280186E0
7.897023592E0,-2.554660082E0,-2.292352676E0,-4.542339325E0,5.693330789E0
7.905258400E0,-1.921168804E0,-4.829499722E0,-4.003208160E0,6.560536008E0
7.913468861E0,-1.703980565E0,-6.631094456E0,-3.457292557E0,7.669930591E0
7.921680246E0,-1.506950140E0,-7.855750561E0,-3.134959221E0,8.591372703E0
7.929905861E0,-1.431428909E0,-8.476234436E0,-2.683480263E0,9.005365359E0
7.938122284E0,-1.483436823E0,-8.784451485E0,-2.369308472E0,9.218502879E0
7.946331361E0,-1.378841877E0,-8.819769859E0,-2.097830772E0,9.170083928E0
7.954540899E0,-9.561584592E-1,-8.158309937E0,-1.960549831E0,8.444881033E0
7.962750053E0,-8.635431528E-1,-6.635845184E0,-2.209034681E0,7.046983916E0
7.970967592E0,-1.384242773E0,-4.103037357E0,-3.297370911E0,5.442765706E0
7.979176784E0,-1.670516729E0,-5.607109070E-1,-5.558172703E0,5.830806690E0
7.987384438E0,-1.431719065E0,3.022907257E0,-8.033483505E0,8.701990864E0
7.995592322E0,-3.660676479E-1,5.153262138E0,-8.373347282E0,9.838854654E0
8.003801245E0,1.372179985E0,5.824073792E0,-8.122909546E0,1.008882416E1
8.012027322E0,2.118759155E0,4.881338120E0,-7.693101883E0,9.354165851E0
8.020242976E0,1.272055626E0,3.375661850E0,-6.704791069E0,7.613635250E0
8.028451438E0,-3.845030069E-2,1.651833534E0,-5.285657406E0,5.537888285E0
8.036659514E0,-8.861964941E-1,2.492141724E-1,-4.122276783E0,4.223815551E0
8.044868284E0,-1.239610434E0,-9.546184540E-1,-2.917230129E0,3.310311473E0
8.053087053E0,-1.395512342E0,-1.790572643E0,-2.083433867E0,3.081282487E0
8.061297245E0,-1.279925823E0,-2.282779217E0,-1.511808276E0,3.022392319E0
8.069506322E0,-9.840475321E-1,-2.337935448E0,-1.306460977E0,2.853266897E0
8.077716130E0,-3.695628047E-1,-2.107235909E0,-1.235065699E0,2.470305066E0
8.085924630E0,2.001371980E-1,-1.753505707E0,-1.277644157E0,2.178809711E0
8.094147899E0,6.456291080E-1,-1.422963142E0,-1.413619399E0,2.107126208E0
8.102364514E0,9.933114052E-1,-1.091851234E0,-1.608336687E0,2.183014788E0
8.110572437E0,1.259826779E0,-8.797645569E-1,-1.712406635E0,2.300757630E0
8.118780860E0,1.100564957E0,-6.167306900E-1,-1.665570736E0,2.089431943E0
8.126989822E0,9.683439732E-1,-4.221239090E-1,-1.597470284E0,1.915147501E0
8.135206629E0,7.931106091E-1,-3.385572433E-1,-1.372084498E0,1.620574378E0
8.143415437E0,7.912584543E-1,-3.872375488E-1,-1.146345139E0,1.445735120E0
8.151650976E0,7.757135630E-1,-4.293069839E-1,-1.001925468E0,1.337867954E0
8.159860976E0,8.765113354E-1,-5.341186523E-1,-7.988200188E-1,1.300641487E0
8.168070091E0,9.545186758E-1,-5.800075531E-1,-5.896644592E-1,1.263019730E0
8.176295514E0,1.012935042E0,-5.626993179E-1,-4.032822549E-1,1.226908513E0
8.184511322E0,1.083831549E0,-3.966236115E-1,-1.779160500E-1,1.167756497E0
8.192719398E0,1.037692785E0,-1.803979874E-1,2.014379203E-2,1.053449345E0
8.200926014E0,8.509466648E-1,8.109474182E-2,2.592488229E-1,8.932505447E-1
8.209134206E0,4.564826488E-1,4.286088943E-1,5.261036754E-1,8.178429374E-1
8.217351129E0,8.125615120E-2,6.905431747E-1,7.857490778E-1,1.049215922E0
8.225560052E0,-1.927803755E-1,9.080400467E-1,1.071794987E0,1.417901792E0
8.233768321E0,-3.186020851E-1,9.479084015E-1,1.406125307E0,1.725463997E0
8.241976860E0,-2.843999863E-1,7.969102859E-1,1.718029976E0,1.915091735E0
8.250184783E0,-2.507978678E-1,6.301193237E-1,1.960911512E0,2.074879248E0
8.258410283E0,4.480457306E-2,5.655021667E-1,2.190725803E0,2.262980269E0
8.266626283E0,-1.744900703E0,7.317562103E-1,8.417634964E0,8.627671992E0
8.274835244E0,-2.654807568E0,7.744073868E-1,1.471004200E1,1.496773348E1
8.283043937E0,1.458860636E-1,-2.620782852E-1,1.052614975E1,1.053042242E1
8.291253475E0,3.068499565E0,-3.007888794E-1,5.422345638E0,6.237627414E0
8.299473052E0,4.355297565E0,4.311914444E-1,-3.476152182E0,5.589112357E0
8.307683437E0,3.858763695E0,7.712459564E-1,-7.152126312E0,8.163197190E0
8.315892898E0,2.087503910E0,1.071853638E-1,-3.634993315E0,4.193129819E0
8.324102244E0,-7.314437628E-1,5.690536499E-1,-1.341416121E0,1.630407692E0
8.332309590E0,-2.606264830E0,9.404172897E-1,8.479022980E-2,2.772037234E0
8.340533975E0,-2.925543070E0,9.110193253E-1,1.281608582E0,3.321336933E0
8.348750590E0,-2.502363920E0,8.088378906E-1,2.421577930E0,3.574924278E0
8.356958513E0,-1.591888070E0,9.075422287E-1,3.441495419E0,3.898926934E0
8.365165244E0,-5.884232521E-1,1.131603241E0,4.014474392E0,4.212217048E0
8.373372398E0,4.834318161E-2,1.659830093E0,4.120023251E0,4.442067603E0
8.381586667E0,4.256262779E-1,2.507492065E0,3.736078262E0,4.519618896E0
8.389792052E0,5.910952091E-1,3.558352470E0,2.936851501E0,4.651490362E0
8.398022205E0,5.975542068E-1,4.596463203E0,1.917489171E0,5.016105036E0
8.406228205E0,6.511864662E-1,5.601843834E0,9.410253167E-1,5.717536777E0
8.414435013E0,7.601459026E-1,6.413940430E0,-1.278281212E-2,6.458840223E0
8.422657013E0,8.230519295E-1,6.929581642E0,-8.330485821E-1,7.027836520E0
8.430870205E0,8.993012905E-1,6.911966324E0,-1.449798822E0,7.119405727E0
8.439074359E0,6.963610649E-1,6.406618118E0,-1.765375733E0,6.681783140E0
8.447278744E0,-3.778893948E-1,5.612112999E0,-1.779526472E-1,5.627635370E0
8.455483321E0,-2.200205803E0,4.556749344E0,-5.663334131E-1,5.091719129E0
8.463699936E0,-3.139950275E0,2.697095871E0,-9.043157101E-1,4.236909342E0
8.471906513E0,-3.202509642E0,1.773409843E0,1.690280735E-1,3.664644726E0
8.480113282E0,-2.746639490E0,1.228311539E0,9.071470499E-1,3.142561614E0
8.488321013E0,-1.994995594E0,1.213917732E0,9.711754322E-1,2.529186707E0
8.496528474E0,-1.445777774E0,1.468509674E0,1.135225773E0,2.352771045E0
8.504749743E0,-1.686188102E0,2.128802299E0,1.656998515E0,3.181300618E0
8.512961897E0,-2.705490112E0,2.627831459E0,2.045766354E0,4.290726617E0
8.521166397E0,-4.758089542E0,3.244837761E0,2.047570705E0,6.112359118E0
8.529371666E0,-7.297492504E0,4.357908249E0,1.474594474E0,8.626655784E0
8.537576243E0,-1.001328659E1,5.167247772E0,2.514882088E-1,1.127074107E1
8.545789936E0,-1.151625919E1,5.780071259E0,-8.403475285E-1,1.291277017E1
8.553996397E0,-1.100828934E1,5.931196213E0,-2.672108173E0,1.278677773E1
8.562203705E0,-7.932288170E0,5.166783333E0,-5.438616276E0,1.091766425E1
8.570409551E0,-5.042698860E0,4.261548996E0,-6.894512177E0,9.545884443E0
8.578615666E0,-2.709975958E0,3.749721527E0,-8.352354050E0,9.548099256E0
8.586839166E0,-1.130624413E0,3.358386040E0,-8.900724411E0,9.580185979E0
8.595053166E0,1.606780291E-1,2.729555130E0,-9.557541847E0,9.940970516E0
8.603258782E0,1.209831953E0,1.896823883E0,-9.178028107E0,9.449753125E0
8.611464589E0,1.518991232E0,1.322941780E0,-8.546858788E0,8.781019556E0
8.619669974E0,1.955653787E0,6.132926941E-1,-7.297696114E0,7.580044738E0
8.627883128E0,2.242623329E0,-1.389369965E-1,-5.223444462E0,5.686214464E0
8.636089051E0,2.701702595E0,-9.426455498E-1,-3.784800768E0,4.744733332E0
8.644320858E0,3.238532066E0,-1.854218006E0,-3.023902178E0,4.803144672E0
8.652527435E0,3.485493898E0,-2.835137367E0,-2.931082726E0,5.364505341E0
8.660733704E0,3.457366467E0,-3.738741875E0,-3.041248322E0,5.931337542E0
8.668956051E0,3.341564417E0,-4.464591503E0,-3.117096663E0,6.388655699E0
8.677169435E0,2.981693983E0,-4.990835667E0,-3.168088675E0,6.620855346E0
8.685374897E0,2.440279961E0,-5.261443138E0,-3.315064669E0,6.680374536E0
8.693580320E0,1.976288915E0,-5.376338959E0,-3.487213135E0,6.706071422E0
8.701786127E0,1.370488167E0,-5.202917099E0,-4.048290253E0,6.733293260E0
8.710001281E0,6.937258244E-1,-5.077630043E0,-4.383316040E0,6.743666798E0
8.718207204E0,6.836128235E-2,-4.699501991E0,-4.997836590E0,6.860638659E0
8.726413627E0,-4.737617970E-1,-4.398295403E0,-5.305787086E0,6.908026440E0
8.734620512E0,-1.074211240E0,-4.040249825E0,-5.572232246E0,6.966155370E0
8.742828050E0,-1.597791791E0,-3.726312637E0,-5.894238949E0,7.154047614E0
8.751049704E0,-2.002459526E0,-3.563263416E0,-6.052385807E0,7.303291332E0
8.759263319E0,-2.242272854E0,-3.533116341E0,-6.009407043E0,7.322818559E0
8.767470781E0,-2.375439644E0,-3.730304718E0,-5.821338654E0,7.310668267E0
8.775677666E0,-2.490323305E0,-3.951132298E0,-5.379670620E0,7.124185046E0
8.783885742E0,-2.531699657E0,-4.226150513E0,-4.885287762E0,6.938003158E0
8.792102742E0,-2.490589142E0,-4.531577587E0,-4.375133038E0,6.773479076E0
8.800308012E0,-2.511693239E0,-4.931535721E0,-3.940310955E0,6.793724893E0
8.808514358E0,-2.451753616E0,-5.114436150E0,-3.568650007E0,6.701030950E0
8.816720435E0,-2.288130760E0,-5.163907051E0,-3.030004025E0,6.409555585E0
8.824927473E0,-2.157992840E0,-4.965142250E0,-2.500681162E0,5.963470209E0
8.833150781E0,-1.701584458E0,-4.287052155E0,-1.695046425E0,4.913999209E0
8.841364934E0,-1.543678999E0,-2.293298244E0,-1.280171633E0,3.046473551E0
8.849571781E0,-1.358255625E0,2.152623177E0,-3.008865118E0,3.941054958E0
8.857778396E0,-1.901708841E-1,8.426959991E0,-5.940099716E0,1.031186716E1
8.865984704E0,-1.204640388E0,1.085509586E1,1.049989223E0,1.097208923E1
8.874200281E0,-4.378463268E0,1.165282059E1,1.097078133E1,1.659268547E1
8.882408050E0,-6.713141441E0,1.140423870E1,1.553069305E1,2.040405242E1
8.890640011E0,-6.686971188E0,9.886980057E0,1.639904976E1,2.028291871E1
8.898846819E0,-4.743601799E0,7.274619102E0,1.457002354E1,1.696194054E1
8.907054357E0,-3.332342625E0,3.429766655E0,1.151779461E1,1.247106248E1
8.915278550E0,-3.116926670E0,9.295120239E-1,7.401681423E0,8.084807503E0
8.923493396E0,-3.166292667E0,-7.016353607E-1,4.883490562E0,5.862267608E0
8.931701434E0,-3.969748020E0,-1.488012314E0,2.330283642E0,4.837695923E0
8.939909088E0,-3.961957455E0,-1.111568451E0,-1.350111961E-1,4.117149416E0
8.948116857E0,-1.824410915E0,-4.346256256E-1,-2.996817827E0,3.535292309E0
8.956333973E0,-4.666320086E-1,7.869310379E-1,-6.151195526E0,6.218859404E0
8.964542011E0,-6.612271070E-1,2.190026283E0,-7.678727150E0,8.012258549E0
8.972749742E0,-2.312002420E0,4.194169998E0,-7.834784508E0,9.182606680E0
8.980957357E0,-4.263792515E0,6.966406822E0,-7.596963406E0,1.115457770E1
8.989164934E0,-6.095747948E0,1.022765160E1,-7.418766022E0,1.402858116E1
8.997388819E0,-8.044898033E0,1.185004425E1,-6.868018150E0,1.588438247E1
9.005604549E0,-9.415901184E0,1.009689426E1,-5.620841980E0,1.490638566E1
9.013812549E0,-7.331546783E0,6.554782867E0,-3.607022762E0,1.047508329E1
9.022020357E0,-6.443874836E-1,1.526453972E0,5.683919907E0,5.920493431E0
9.030229395E0,-1.767685652E0,-1.287014008E0,8.111219406E-1,2.332174183E0
9.038447241E0,-3.272299290E0,-2.955967426E0,-4.305727959E0,6.163195545E0
9.046656511E0,-2.522945642E0,-4.809057236E0,-5.025790691E0,7.399382291E0
9.054866357E0,-1.746497631E0,-6.324344635E0,-4.883147717E0,8.178797018E0
9.063076549E0,-9.523068666E-1,-7.467178345E0,-4.625140190E0,8.835019105E0
9.071284972E0,-3.355846405E-1,-8.069129944E0,-4.343036175E0,9.169811248E0
9.079510587E0,1.458264291E-1,-8.179027557E0,-4.370254993E0,9.274528874E0
9.087727895E0,9.627518654E-1,-7.492805481E0,-5.047554970E0,9.085528950E0
9.095936434E0,2.099047661E0,-6.175257683E0,-6.285808086E0,9.058211293E0
9.104144587E0,3.154678345E0,-4.137495518E0,-8.126067162E0,9.649032704E0
9.112353280E0,3.831185341E0,-1.989257336E0,-8.962575912E0,9.948009492E0
9.120571164E0,3.524497509E0,1.410665512E-1,-9.763709068E0,1.038132926E1
9.128779933E0,2.376861334E0,2.680942535E0,-8.725542068E0,9.432497393E0
9.137014780E0,-6.143477559E-1,5.438081741E0,-5.537277699E0,7.785345240E0
9.145224164E0,-2.432203531E0,7.334713936E0,-1.977423668E0,7.976455786E0
9.153434279E0,-2.509169579E0,7.823139191E0,2.815983295E-1,8.220507064E0
9.161661549E0,-2.507182121E0,7.032611847E0,2.640150785E-1,7.470829642E0
9.169877279E0,-1.563182831E0,5.115196228E0,1.406071186E-1,5.350564772E0
9.178084626E0,-4.196199477E-1,2.861584663E0,-2.743526697E-1,2.905170748E0
9.186293395E0,6.605561972E-1,9.571046829E-1,-2.107756138E-1,1.181867261E0
9.194501895E0,1.373198867E0,-6.487646103E-1,-9.586393833E-2,1.521762315E0
9.202719472E0,1.756756663E0,-1.914375305E0,-1.384521723E-1,2.601959990E0
9.210927548E0,2.138561249E0,-2.935346603E0,-1.822676659E-1,3.636334060E0
9.219135548E0,2.353519917E0,-3.658406258E0,-3.022819757E-1,4.360546610E0
9.227343933E0,2.277979612E0,-4.098869324E0,-3.698143363E-1,4.703900880E0
9.235552818E0,2.218794107E0,-4.324044228E0,-4.124484658E-1,4.877552615E0
9.243779125E0,2.183022738E0,-4.236348152E0,-4.696656168E-1,4.788822374E0
9.251996664E0,2.017239332E0,-3.749637127E0,-4.987416863E-1,4.286930881E0
9.260206164E0,1.931785822E0,-2.966903687E0,-4.893900752E-1,3.574047648E0
9.268415164E0,1.840806007E0,-2.020162106E0,-4.856862426E-1,2.775880548E0
9.276624433E0,1.434485793E0,-1.122770309E0,-6.105375290E-1,1.921228444E0
9.284842317E0,5.656245947E-1,-3.584928513E-1,-7.330569029E-1,9.928850535E-1
9.293050817E0,6.120395660E-2,1.127090454E-1,-8.485516310E-1,8.581894451E-1
9.301259510E0,-1.710106134E-1,3.486824036E-1,-8.532680869E-1,9.374915875E-1
9.309468663E0,-2.373734713E-1,4.093189240E-1,-7.056291699E-1,8.495885309E-1
9.317678279E0,-2.880818844E-1,3.084077835E-1,-3.683801889E-1,5.601879119E-1
9.325902856E0,-3.292981386E-1,3.230676651E-1,5.951428413E-2,4.651364642E-1
9.334117856E0,-4.299823046E-1,3.139228821E-1,5.524082184E-1,7.671943677E-1
9.342324779E0,-6.186844707E-1,4.195060730E-1,9.994025230E-1,1.248022925E0
9.350532009E0,-8.888722658E-1,5.490093231E-1,1.550653815E0,1.869768006E0
9.358739933E0,-1.137922049E0,4.659194946E-1,1.888712645E0,2.253704288E0
9.366957586E0,-1.724532843E0,4.439105988E-1,2.688341618E0,3.224631886E0
9.375166548E0,-6.139622211E0,7.798471451E-1,1.217662811E1,1.365918719E1
9.383401548E0,-5.287940025E0,4.197788239E-2,1.230718613E1,1.339518205E1
9.391610125E0,-2.555924654E-1,-8.092565536E-1,3.602677822E0,3.701285070E0
9.399819394E0,2.625228643E0,-8.632469177E-1,-2.938326597E0,4.033705971E0
9.408045625E0,3.274015427E0,-8.527746201E-1,-7.053599358E0,7.823021505E0
9.416261778E0,2.957326412E0,-1.451739788E0,-6.708271027E0,7.473568631E0
9.424470663E0,2.846153021E0,-2.058246136E0,-2.913336039E0,4.563385919E0
9.432678817E0,1.833004951E0,-2.353741169E0,1.766136646E0,3.466878033E0
9.440886394E0,1.116378307E0,-2.232565880E0,7.499000549E0,7.903522011E0
9.449103355E0,5.050612688E-1,-1.530001163E0,9.256734848E0,9.395910307E0
9.457312432E0,-2.407578230E-1,-2.342653275E-1,7.246720791E0,7.254502519E0
9.465518471E0,-8.904244900E-1,1.254920006E0,3.807251930E0,4.106439730E0
9.473725009E0,-8.527315855E-1,2.394905090E0,1.462206841E0,2.932707008E0
9.481932471E0,-4.037448764E-1,3.147582054E0,4.021341801E-1,3.198748913E0
9.490156855E0,3.825595379E-1,3.830917358E0,-2.108881474E-1,3.855742914E0
9.498370355E0,1.201336026E0,4.384261131E0,-7.191960812E-1,4.602412076E0
9.506576932E0,1.837335110E0,4.979990959E0,-9.682291746E-1,5.395699954E0
9.514783855E0,2.577850103E0,5.617780685E0,-8.454966545E-1,6.238560377E0
9.522991547E0,3.034747124E0,6.367470741E0,-7.050100565E-1,7.088823099E0
9.531208624E0,3.954026699E0,7.849389076E0,-1.537484050E0,8.922504873E0
9.539415201E0,4.380504608E0,7.586167336E0,-2.321996212E0,9.062583620E0
9.547621470E0,2.602636576E0,5.951499939E0,-1.697328687E0,6.713791279E0
9.555827778E0,-5.993286371E-1,5.488042831E0,-1.175382733E0,5.644407277E0
9.564034970E0,-1.578726053E0,4.761543274E0,-1.212681174E0,5.160936536E0
9.572260047E0,-9.939872026E-1,4.069269180E0,-1.483582973E0,4.443870009E0
9.580475393E0,-1.552901268E-1,3.982973099E0,-2.693842888E0,4.810922909E0
9.588683585E0,3.778814077E-1,4.361325264E0,-3.971596241E0,5.910797672E0
9.596892201E0,1.006714582E0,4.683958054E0,-3.760066509E0,6.090241165E0
9.605099970E0,1.045003891E0,4.986469269E0,-2.842728615E0,5.834210733E0
9.613314932E0,-5.739521384E-1,5.335206985E0,-1.849738836E0,5.675860146E0
9.621522547E0,-2.697030067E0,5.792669296E0,-2.498427629E-1,6.394639174E0
9.629754470E0,-6.131058693E0,6.306163788E0,-1.773006916E-1,8.797102816E0
9.637961085E0,-9.828669548E0,6.789532661E0,-7.610257864E-1,1.196994817E1
9.646166624E0,-1.182527924E1,6.440969467E0,-1.617399573E0,1.356242228E1
9.654389278E0,-1.206050682E1,5.100347519E0,-3.842568159E0,1.364678349E1
9.662603816E0,-8.542058945E0,3.026650429E0,-5.827008247E0,1.077410827E1
9.670809701E0,-5.500822544E0,1.735408783E0,-6.850425243E0,8.955390462E0
9.679016931E0,-2.870342731E0,7.659282684E-1,-7.564951420E0,8.127361410E0
9.687223393E0,-8.466421962E-1,4.596767426E-1,-8.480933189E0,8.535475000E0
9.695438777E0,6.259377003E-1,3.632049561E-1,-8.388559341E0,8.419717553E0
9.703644508E0,1.278861046E0,2.168874741E-1,-8.370935440E0,8.470837378E0
9.711851162E0,1.381325245E0,-2.506017685E-1,-8.705125809E0,8.817600355E0
9.720058047E0,1.235275507E0,-7.305564880E-1,-7.530832767E0,7.666359014E0
9.728265431E0,1.065284252E0,-1.049015522E0,-5.911898613E0,6.098016834E0
9.736489508E0,9.385465980E-1,-1.043339252E0,-4.111283779E0,4.344200827E0
9.744704893E0,9.720019102E-1,-1.130987167E0,-3.054157257E0,3.398793350E0
9.752913200E0,1.163265467E0,-1.494019508E0,-2.404426098E0,3.060481285E0
9.761121585E0,1.266802311E0,-2.022957802E0,-1.958512783E0,3.087542499E0
9.769328546E0,1.222463727E0,-2.618102074E0,-2.389941454E0,3.749759484E0
9.777544277E0,1.222175956E0,-3.011728287E0,-2.728774548E0,4.243869917E0
9.785751008E0,1.028561592E0,-3.346341610E0,-3.092612982E0,4.671209284E0
9.793956854E0,1.769694686E-1,-3.422523499E0,-3.937656403E0,5.220165058E0
9.802163277E0,-8.472088575E-1,-3.418307781E0,-5.129963398E0,6.222468594E0
9.810371046E0,-1.998081684E0,-3.378870487E0,-6.411565304E0,7.517796607E0
9.818596508E0,-2.827459097E0,-3.594328403E0,-6.904407024E0,8.281579437E0
9.826814277E0,-3.371572018E0,-3.925199032E0,-7.065336227E0,8.757491725E0
9.835023469E0,-3.710888147E0,-4.293143272E0,-7.137210846E0,9.118198762E0
9.843232354E0,-4.023678780E0,-4.544387341E0,-7.125371933E0,9.360148097E0
9.851440738E0,-4.169263363E0,-4.897117138E0,-6.992849350E0,9.500760774E0
9.859658238E0,-4.173440933E0,-5.234503746E0,-6.886157990E0,9.603999716E0
9.867867469E0,-4.254617691E0,-5.585835934E0,-6.253567219E0,9.402682475E0
9.876101392E0,-4.190259933E0,-6.005250931E0,-5.225824833E0,8.996141519E0
9.884309777E0,-4.003121853E0,-6.224837303E0,-4.447623253E0,8.634520057E0
9.892518546E0,-3.676655769E0,-6.362046242E0,-3.563783646E0,8.166638470E0
9.900743507E0,-3.325480938E0,-6.361948013E0,-3.186060429E0,7.853928128E0
9.908958853E0,-2.984041691E0,-6.090784073E0,-2.992172241E0,7.413180839E0
9.917166738E0,-2.713236332E0,-5.728675365E0,-2.849360943E0,6.949692843E0
9.925374007E0,-2.523981571E0,-5.194071293E0,-2.702032089E0,6.375722467E0
9.933582969E0,-2.206228495E0,-4.081444263E0,-2.474759579E0,5.258333046E0
9.941799238E0,-1.414796948E0,-2.241895199E0,-2.239609480E0,3.470388323E0
9.950008238E0,-4.846028090E-1,2.777336121E0,-3.873472691E0,4.790848202E0
9.958216084E0,4.355666637E-1,7.258583069E0,-2.821808815E0,7.799958428E0
9.966424238E0,-1.238050461E-1,1.080760956E1,5.372276306E0,1.206984278E1
9.974631584E0,-3.195183277E-1,1.308267784E1,1.401657772E1,1.917610499E1
9.982876661E0,-8.299867511E-1,1.324897861E1,1.576040077E1,2.060617735E1
9.991093045E0,-3.410865068E-1,1.138243103E1,1.284003448E1,1.716224233E1
9.999300545E0,2.172865629E0,7.689515114E0,1.019908237E1,1.295651454E1
1.000750866E1,4.006700516E0,3.794610977E0,6.772292137E0,8.735940836E0
1.001571635E1,4.172829628E0,1.026358604E0,2.522809029E0,4.983019615E0
1.002393235E1,3.379856110E0,-9.099540710E-1,-1.247813702E0,3.715976691E0
1.003213851E1,1.859318495E0,-1.920674324E0,-4.113595009E0,4.905886161E0
1.004034555E1,2.029933929E-1,-2.650174618E0,-5.663069248E0,6.255796123E0
1.004855266E1,-9.471545815E-1,-2.840934753E0,-6.607459068E0,7.254414340E0
1.005675951E1,-1.218559742E0,-2.832784653E0,-6.683953285E0,7.361031738E0
1.006498570E1,-8.868011236E-1,-2.559576035E0,-6.088937759E0,6.664308572E0
1.007320235E1,-8.004317880E-1,-1.728470325E0,-5.136548042E0,5.478359837E0
1.008141012E1,-8.649410605E-1,-4.021749496E-1,-4.026947021E0,4.138377707E0
1.008961643E1,-9.905373454E-1,1.460865021E0,-3.208930016E0,3.662311113E0
1.009782274E1,-1.617398620E0,4.311306000E0,-3.032537699E0,5.513585278E0
1.010603616E1,-2.448569775E0,7.243302345E0,-3.103646278E0,8.251881181E0
1.011424320E1,-3.780381918E0,1.083108425E1,-3.153727055E0,1.189746477E1
1.012247608E1,-5.907766342E0,1.344407177E1,-3.081797600E0,1.500474076E1
1.013068439E1,-1.103771877E1,1.451784611E1,1.238319159E0,1.827929226E1
1.013889243E1,-1.228267670E1,1.240388775E1,1.977169991E1,2.637500133E1
1.014711766E1,-8.863341331E0,4.893385887E0,4.776163578E0,1.119445325E1
1.015533420E1,-5.558292866E0,1.009202003E0,-5.560665131E0,7.926796639E0
1.016354089E1,-2.506353617E0,-1.431694984E0,-8.657443047E0,9.125945380E0
1.017174839E1,-1.110963464E0,-3.886611462E0,-8.041637421E0,9.000440038E0
1.017995528E1,-5.963734984E-1,-5.825186729E0,-6.539176464E0,8.777772531E0
1.018817158E1,-5.181273222E-1,-7.029645920E0,-5.387535572E0,8.871860978E0
1.019637901E1,-8.426216245E-1,-7.337078571E0,-4.862236977E0,8.842176292E0
1.020458731E1,-1.103167892E0,-7.149921417E0,-4.903686523E0,8.739822492E0
1.021279470E1,-1.256432295E0,-6.498467445E0,-5.355594158E0,8.514169956E0
1.022099970E1,-1.277133226E0,-5.162965775E0,-6.169095993E0,8.145245867E0
1.022922193E1,-1.192193270E0,-3.560077190E0,-6.850403786E0,7.811754375E0
1.023743347E1,-1.022892952E0,-1.917242527E0,-7.570303440E0,7.876015685E0
1.024563928E1,-8.343893886E-1,-3.174839020E-1,-7.715010166E0,7.766491070E0
1.025384381E1,-6.846878529E-1,9.568490982E-1,-6.665166378E0,6.768219891E0
1.026204912E1,-4.955186546E-1,1.809990883E0,-4.748092175E0,5.105485778E0
1.027026347E1,-5.829183459E-1,2.435592651E0,-2.711465836E0,3.691063849E0
1.027846981E1,-1.174345732E0,2.641059875E0,-5.433914065E-1,2.941013326E0
1.028667754E1,-1.860483646E0,2.316587448E0,6.703753471E-1,3.045879169E0
1.029488201E1,-2.256386280E0,1.781562805E0,1.092853785E0,3.075642123E0
1.030308697E1,-2.124201298E0,9.583473206E-1,1.368917823E0,2.702701749E0
1.031130728E1,-1.636859536E0,2.330493927E-2,1.401534677E0,2.155029399E0
1.031951931E1,-1.128170729E0,-7.005395889E-1,1.256054640E0,1.827894463E0
1.032772401E1,-6.312669516E-1,-1.415559769E0,1.025723338E0,1.858605872E0
1.033592954E1,-1.840907335E-1,-1.935931206E0,7.562105656E-1,2.086521855E0
1.034413416E1,2.374573946E-1,-2.231978416E0,4.657721519E-1,2.292391189E0
1.035234666E1,5.519437790E-1,-2.368329048E0,-5.832195282E-3,2.431801478E0
1.036055262E1,9.648224711E-1,-2.291594028E0,-5.763072968E-1,2.552335341E0
1.036878424E1,1.362539053E0,-2.060932636E0,-1.200519204E0,2.746853174E0
1.037698878E1,1.530249953E0,-1.740596294E0,-1.834869623E0,2.956025527E0
1.038519593E1,1.656183481E0,-1.457203865E0,-2.211327791E0,3.123516837E0
1.039342208E1,1.642181396E0,-1.182023048E0,-2.421819210E0,3.155811546E0
1.040163747E1,1.556530356E0,-9.152994156E-1,-2.460285664E0,3.051813447E0
1.040984539E1,1.450635672E0,-7.146921158E-1,-2.318154812E0,2.826476677E0
1.041805408E1,1.057677865E0,-6.715373993E-1,-2.142856121E0,2.482232322E0
1.042626158E1,4.323307276E-1,-7.094411850E-1,-1.825278044E0,2.005456704E0
1.043447897E1,-2.709437609E-1,-8.401460648E-1,-1.417326331E0,1.669751437E0
1.044268731E1,-6.029103398E-1,-1.005938530E0,-9.843964577E-1,1.531159557E0
1.045089481E1,-6.019973755E-1,-1.125492096E0,-6.263115406E-1,1.421759278E0
1.045910308E1,-5.185115337E-1,-1.119939804E0,-3.250875473E-1,1.276244996E0
1.046731016E1,-4.738097787E-1,-1.023129463E0,-9.799006581E-2,1.131764842E0
1.047553543E1,-4.891799092E-1,-8.209381104E-1,9.744203091E-2,9.605890453E-1
1.048375097E1,-5.483988523E-1,-4.153118134E-1,1.780480742E-1,7.105816774E-1
1.049195797E1,-6.291069388E-1,6.209659576E-2,2.558675408E-1,6.819822037E-1
1.050016585E1,-6.615879536E-1,5.204668045E-1,3.364205658E-1,9.065115068E-1
1.050837497E1,-8.337231874E-1,1.014901161E0,3.115437627E-1,1.349880823E0
1.051659397E1,-7.903528214E-1,1.239337921E0,1.826721728E-1,1.481210717E0
1.052480227E1,-5.142860413E-1,1.301820755E0,5.487972498E-2,1.400799484E0
1.053301077E1,-1.508797407E-1,1.305493355E0,-1.171982288E-2,1.314235500E0
1.054121801E1,9.530138969E-2,1.310048103E0,-1.184323430E-1,1.318838355E0
1.054942627E1,2.575020790E-1,1.102171898E0,-1.940191984E-1,1.148361294E0
1.055765154E1,3.369334936E-1,8.063831329E-1,-2.033170462E-1,8.972824290E-1
1.056586866E1,3.811044693E-1,4.081687927E-1,-1.804317236E-1,5.868543148E-1
1.057407677E1,4.513274431E-1,1.158618927E-1,-1.000449657E-1,4.765809840E-1
1.058228466E1,5.013465881E-1,-1.206598282E-1,-1.922082901E-2,5.160199956E-1
1.059049324E1,6.333330870E-1,-3.156738281E-1,6.439125538E-2,7.105680816E-1
1.059873097E1,8.305770159E-1,-4.955120087E-1,2.009536028E-1,9.878120674E-1
1.060693927E1,1.065542579E0,-5.645561218E-1,3.325482607E-1,1.250876871E0
1.061517258E1,1.302046299E0,-5.181627274E-1,4.086860418E-1,1.459740202E0
1.062338135E1,1.669306278E0,-3.799724579E-1,5.175361633E-1,1.788520674E0
1.063159004E1,2.143185139E0,-1.573152542E-1,6.556957960E-1,2.246759356E0
1.063981481E1,2.713342905E0,1.812801361E-1,8.829500675E-1,2.859142009E0
1.064803043E1,3.464611053E0,5.636463165E-1,1.290101528E0,3.739731123E0
1.065623797E1,4.895066738E0,1.424886703E0,4.717816830E0,6.946205880E0
1.066444589E1,5.584323883E0,3.234541893E0,9.832841873E0,1.176145033E1
1.067265339E1,5.151049137E0,4.789457321E0,9.190427780E0,1.157307960E1
1.068087039E1,5.034534454E0,5.951460838E0,3.866204262E0,8.701376826E0
1.068907674E1,4.837285995E0,6.900057793E0,-1.525681734E0,8.563751403E0
1.069728362E1,3.385093689E0,7.077630043E0,-2.726064920E0,8.305608723E0
1.070549066E1,1.698734283E0,6.307723999E0,-1.213829279E0,6.644280377E0
1.071369639E1,2.599481344E-1,5.420556068E0,-5.202245712E-2,5.427034868E0
1.072192074E1,-5.918811560E-1,3.956758499E0,5.862885714E-1,4.043512757E0
1.073013754E1,-1.156465650E0,2.694719315E0,6.360368729E-1,3.000577925E0
1.073834443E1,-1.544451118E0,2.005645752E0,3.384189606E-1,2.553912984E0
1.074655197E1,-1.232154608E0,1.514671326E0,4.358565807E-2,1.953031979E0
1.075476093E1,-6.869746447E-1,1.257397652E0,-4.252206087E-1,1.494588767E0
1.076297877E1,-2.031670809E-1,1.223391533E0,-1.110437870E0,1.664642895E0
1.077118739E1,4.972977638E-1,1.361044884E0,-1.358082891E0,1.985985241E0
1.077939677E1,1.145217299E0,1.841824532E0,-8.574194908E-1,2.332168187E0
1.078760650E1,1.256850839E0,2.695964813E0,7.221667767E-1,3.060951675E0
1.079581681E1,-1.114792824E-1,4.054224968E0,1.664215803E0,4.383923124E0
1.080404366E1,-2.566258430E0,4.897871017E0,1.894859552E0,5.845110397E0
1.081226027E1,-5.944078922E0,5.596741676E0,1.454046607E0,8.292758477E0
1.082046985E1,-1.097142315E1,6.187035561E0,-5.829784870E-1,1.260917915E1
1.082867939E1,-1.480347919E1,6.386860847E0,-2.002849340E0,1.624642709E1
1.083688827E1,-1.651339912E1,5.892454147E0,-3.831065655E0,1.794687802E1
1.084510712E1,-1.436563301E1,4.758063316E0,-5.371329308E0,1.605807451E1
1.085331520E1,-9.730593681E0,3.277995110E0,-6.030874252E0,1.190802879E1
1.086154993E1,-5.778690815E0,1.978070259E0,-6.438603401E0,8.874775673E0
1.086975996E1,-3.595487595E0,1.174803734E0,-6.755153656E0,7.742079551E0
1.087794200E1,-1.768918753E0,5.629053116E-1,-7.118189335E0,7.356259603E0
1.088613362E1,-4.342588782E-1,-9.298896790E-2,-6.967099190E0,6.981239062E0
1.089434943E1,1.667461395E-1,-4.657754898E-1,-6.147965431E0,6.167838359E0
1.090255662E1,2.747280002E-1,-6.905965805E-1,-5.477268219E0,5.527464722E0
1.091076412E1,7.869234681E-2,-6.562013626E-1,-4.974635124E0,5.018345079E0
1.091897004E1,-2.795601487E-1,-3.096866608E-1,-5.003009796E0,5.020375158E0
1.092718704E1,-4.299757779E-1,-2.457208633E-1,-5.588727951E0,5.610627240E0
1.093539416E1,-3.368944526E-1,-2.278146744E-1,-5.987072468E0,6.000869448E0
1.094360235E1,-9.115020186E-2,-5.068225861E-1,-6.150747299E0,6.172266183E0
1.095180981E1,2.823494077E-1,-1.115554810E0,-5.960222244E0,6.070291008E0
1.096001608E1,9.124157429E-1,-2.013443470E0,-5.539868355E0,5.964612182E0
1.096823881E1,1.300205350E0,-2.773592949E0,-5.165777206E0,6.005714441E0
1.097645143E1,1.512477279E0,-3.571864128E0,-4.592539310E0,6.011423973E0
1.098465796E1,1.537147641E0,-4.251928806E0,-4.089675426E0,6.096488050E0
1.099286496E1,1.359615684E0,-4.766766548E0,-3.662333012E0,6.163059404E0
1.100107131E1,9.397626519E-1,-5.158880234E0,-3.408342838E0,6.254118644E0
1.100929066E1,2.091407776E-1,-5.229268074E0,-3.400078535E0,6.240954935E0
1.101749573E1,-6.131861210E-1,-5.264330864E0,-3.451753139E0,6.324853864E0
1.102570189E1,-1.476395607E0,-5.288374901E0,-3.761654377E0,6.655576364E0
1.103390800E1,-2.385867119E0,-5.386577606E0,-4.124996185E0,7.191882490E0
1.104211447E1,-3.183717251E0,-5.499351501E0,-4.532367229E0,7.805208208E0
1.105033800E1,-3.747587442E0,-5.679764748E0,-4.880536556E0,8.373994047E0
1.105855139E1,-3.904342890E0,-5.927909851E0,-4.813174248E0,8.576167847E0
1.106675789E1,-3.712028265E0,-6.288074493E0,-4.537161827E0,8.596794293E0
1.107496312E1,-3.484671593E0,-6.686315536E0,-4.000749111E0,8.535557686E0
1.108316885E1,-3.185696125E0,-7.197844505E0,-3.011213779E0,8.427635122E0
1.109138443E1,-3.128397703E0,-7.497181892E0,-2.047529221E0,8.377767270E0
1.109959104E1,-3.160060883E0,-7.723768711E0,-1.178162336E0,8.427968579E0
1.110782262E1,-3.253681660E0,-7.425282955E0,-4.790027142E-1,8.121004550E0
1.111602966E1,-2.731404066E0,-6.579959869E0,5.237491131E-1,7.143581258E0
1.112423750E1,-1.549624920E0,-4.935028553E0,1.602238894E0,5.415072823E0
1.113246320E1,-8.356869221E-2,-1.201951027E0,1.972526073E0,2.311391163E0
1.114067912E1,1.870040298E0,5.215913773E0,3.534799576E0,6.572489273E0
1.114888723E1,5.014445305E0,1.123871994E1,8.396282196E0,1.489802142E1
1.115709527E1,6.080359459E0,1.328584194E1,9.804046631E0,1.759555903E1
1.116530185E1,3.791974545E0,1.284957314E1,8.608525276E0,1.592473887E1
1.117354004E1,1.328710794E0,1.104028130E1,8.150475502E0,1.378707853E1
1.118174820E1,-6.589186192E-2,8.767220497E0,8.185694695E0,1.199475280E1
1.118995593E1,7.462871075E-2,6.286146164E0,7.004834175E0,9.412167915E0
1.119816442E1,3.102726340E-1,3.712413788E0,4.060034752E0,5.510187604E0
1.120637320E1,9.057569504E-2,1.882703781E0,1.475356102E0,2.393627605E0
1.121459585E1,-8.268721104E-1,8.226671219E-1,-8.738887310E-1,1.457456756E0
1.122281077E1,-2.021259308E0,2.303237915E-1,-3.574828625E0,4.113142100E0
1.123101746E1,-2.571453571E0,6.754198074E-1,-6.707322121E0,7.215035372E0
1.123922400E1,-1.714183807E0,1.673685074E0,-7.338426590E0,7.719595369E0
1.124743254E1,-1.984396935E0,3.637691498E0,-6.646733284E0,7.832604546E0
1.125564908E1,-2.693069458E0,6.627057076E0,-5.815134048E0,9.218801039E0
1.126385769E1,-4.553576946E0,1.047116375E1,-5.735888958E0,1.277813583E1
1.127206543E1,-8.150962830E0,1.382740498E1,-6.004706383E0,1.713743919E1
1.128027200E1,-1.333075619E1,1.449847889E1,-5.891716003E0,2.055790038E1
1.128847858E1,-1.612095070E1,1.217167282E1,-3.901670933E0,2.057322791E1
1.129670346E1,-9.916440964E0,6.441578865E0,6.439507484E0,1.346465730E1
1.130491723E1,-4.265555382E0,1.516208649E-1,8.543977737E0,9.550785684E0
1.131312369E1,-4.476975918E0,-2.003231525E0,-6.929864883E-1,4.953431153E0
1.132133031E1,-3.204100609E0,-3.713396072E0,-4.199987888E0,6.457202906E0
1.132953719E1,-2.282061100E0,-5.367321014E0,-4.567103386E0,7.407723744E0
1.133775458E1,-1.796334028E0,-6.437459946E0,-4.617132187E0,8.123153090E0
1.134596150E1,-1.477342010E0,-7.277565956E0,-4.283424377E0,8.572819259E0
1.135419531E1,-1.297686338E0,-7.714671612E0,-3.909873486E0,8.745699434E0
1.136240346E1,-1.263145208E0,-7.603048325E0,-4.175517082E0,8.765661558E0
1.137061019E1,-1.397751927E0,-6.702598095E0,-5.100727558E0,8.537912701E0
1.137883273E1,-1.500761509E0,-5.202823639E0,-6.569036484E0,8.513160356E0
1.138704604E1,-1.911690950E0,-3.424499989E0,-7.996404171E0,8.906415785E0
1.139525166E1,-2.556884289E0,-1.487236977E0,-9.128434181E0,9.595719967E0
1.140345789E1,-2.759452343E0,-1.994018555E-1,-9.382809639E0,9.782200931E0
1.141166527E1,-2.578208685E0,7.383518219E-1,-8.794543266E0,9.194363202E0
1.141988096E1,-2.582105637E0,1.895174980E0,-8.282519341E0,8.880263755E0
1.142808892E1,-2.525606632E0,3.010089874E0,-5.040705681E0,6.391247427E0
1.143629616E1,-2.369528294E0,3.086501122E0,-3.681772709E0,5.356921111E0
1.144450266E1,-2.374222279E0,2.740339279E0,-2.202201366E0,4.242178880E0
1.145270881E1,-2.333112240E0,1.988807678E0,-7.817229629E-1,3.163836199E0
1.146093116E1,-2.173917532E0,1.075527191E0,-1.525930166E-1,2.430218263E0
1.146914523E1,-1.893965602E0,2.165527344E-1,4.025638103E-2,1.906730543E0
1.147735127E1,-1.497542262E0,-4.948892593E-1,3.429014683E-1,1.614041394E0
1.148555750E1,-1.120767474E0,-1.051161766E0,2.987501621E-1,1.565347389E0
1.149376412E1,-6.241233349E-1,-1.414117813E0,3.771536350E-1,1.591070077E0
1.150197912E1,-2.363248467E-1,-1.609156609E0,4.208661318E-1,1.679988906E0
1.151018504E1,7.491159439E-2,-1.619116306E0,3.687458038E-1,1.662264368E0
1.151839231E1,5.855680704E-1,-1.400297165E0,4.611854553E-1,1.586320945E0
1.152659927E1,1.120609283E0,-1.158390045E0,5.504662991E-1,1.703128242E0
1.153480627E1,1.571792483E0,-9.069538116E-1,4.989809990E-1,1.882041143E0
1.154303254E1,1.837951660E0,-6.723327637E-1,4.362022877E-1,2.005086054E0
1.155124642E1,2.466913462E0,-5.423107147E-1,3.477207422E-1,2.549641672E0
1.155945323E1,3.224078894E0,-5.593299866E-1,2.045538425E-1,3.278624257E0
1.156765954E1,3.712725401E0,-7.090950012E-1,2.183748484E-1,3.786136976E0
1.157586512E1,3.847199678E0,-1.078375816E0,1.527869701E-1,3.998397632E0
1.158408023E1,3.625597000E0,-1.442816734E0,4.407948256E-2,3.902386031E0
1.159228746E1,2.860807419E0,-1.704617977E0,-7.045692205E-2,3.330901637E0
1.160051973E1,1.410658836E0,-1.686779976E0,-1.089029908E-1,2.201600532E0
1.160872766E1,4.398387671E-1,-1.661007881E0,2.666858435E-1,1.738829106E0
1.161693604E1,-2.152496576E-1,-1.472776413E0,6.408643126E-1,1.620527644E0
1.162516066E1,-6.335111260E-1,-1.245818138E0,1.029192328E0,1.735694682E0
1.163337416E1,-8.182255030E-1,-1.096726418E0,1.194500327E0,1.816351519E0
1.164158196E1,-7.200114727E-1,-9.872055054E-1,1.236624479E0,1.738456595E0
1.164978927E1,-5.070740581E-1,-8.310174942E-1,1.164416552E0,1.517754948E0
1.165799773E1,-3.579591513E-1,-5.379447937E-1,7.479342222E-1,9.883951415E-1
1.166621415E1,-9.485125542E-2,-1.734018326E-1,-1.302652359E-1,2.367149929E-1
1.167442239E1,2.186260223E-1,3.641252518E-1,-8.436156511E-1,9.444955815E-1
1.168263127E1,6.671679020E-1,9.007186890E-1,-1.051221967E0,1.536709078E0
1.169083896E1,1.038200974E0,1.366019249E0,-7.693951130E-1,1.880382592E0
1.169904577E1,1.021180034E0,1.534302711E0,-9.190011024E-2,1.845356091E0
1.170726808E1,9.572501183E-1,1.453970909E0,7.554392815E-1,1.897642670E0
1.171548231E1,5.858763456E-1,1.293424606E0,1.745275140E0,2.249929692E0
1.172368796E1,6.172697544E-1,1.152245522E0,2.083598375E0,2.459689794E0
1.173189315E1,8.102887869E-1,1.091600418E0,1.756716490E0,2.221308672E0
1.174009942E1,1.124115586E0,1.075387001E0,9.398261905E-1,1.817516526E0
1.174831646E1,1.507901192E0,1.040430069E0,3.147078753E-1,1.858844205E0
1.175652558E1,1.412773609E0,1.026010513E0,2.839846611E-1,1.768975447E0
1.176473381E1,7.457693815E-1,9.860363007E-1,7.282538414E-1,1.434849544E0
1.177294115E1,1.583307981E-1,8.756542206E-1,1.093864202E0,1.410098525E0
1.178114762E1,1.487743855E-2,8.199911118E-1,1.292570591E0,1.530798972E0
1.178936938E1,2.166558504E-1,1.041722298E0,1.388539791E0,1.749333546E0
1.179758288E1,3.763380051E-1,1.453763962E0,1.604733229E0,2.197778125E0
1.180578992E1,5.037677288E-1,2.110443115E0,1.756160975E0,2.791389159E0
1.181399765E1,8.385604620E-1,2.845952988E0,1.427901864E0,3.292648750E0
1.182220527E1,1.237246752E0,3.489403725E0,1.003160119E0,3.835759130E0
1.183042185E1,1.279592395E0,4.085339546E0,1.289439201E0,4.471018828E0
1.183862915E1,9.208153486E-1,4.815925598E0,2.131958008E0,5.346614370E0
1.184686192E1,-2.134993076E-1,5.270432472E0,2.741550922E0,5.944673402E0
1.185507069E1,-5.983613729E-1,4.477701187E0,1.635057449E0,4.804295694E0
1.186327869E1,-8.876066804E-1,3.303365707E0,2.821931839E-1,3.432157282E0
1.187150423E1,-1.398318052E0,2.456112862E0,-3.470706940E-1,2.847497468E0
1.187971938E1,-1.991586804E0,1.830602646E0,1.152426004E-1,2.707545919E0
1.188792708E1,-2.274833679E0,1.388898849E0,1.026597619E0,2.856188186E0
1.189613412E1,-1.820841312E0,1.303254128E0,2.022743464E0,3.017519764E0
1.190434019E1,-1.195056796E0,1.939143181E0,2.201455593E0,3.167782150E0
1.191255542E1,-6.971026063E-1,2.588771820E0,1.933182597E0,3.305281612E0
1.192076346E1,-3.861315250E-1,2.957315445E0,1.861549735E0,3.515704711E0
1.192897162E1,-1.045267463E0,3.248282433E0,1.538055420E0,3.742931646E0
1.193718008E1,-2.419296265E0,4.009452820E0,1.332054138E0,4.868580343E0
1.194538708E1,-3.956073284E0,4.819273949E0,1.100240350E0,6.331385792E0
1.195361135E1,-5.780347824E0,5.688579559E0,9.361079931E-1,8.163862845E0
1.196182496E1,-6.968706131E0,6.315587997E0,-1.368646622E-1,9.405756154E0
1.197003112E1,-8.489962578E0,6.514003754E0,-2.062856197E0,1.089803125E1
1.197823681E1,-7.913331509E0,5.951278687E0,-3.989974499E0,1.067513138E1
1.198644312E1,-5.833328247E0,4.965736389E0,-6.342512131E0,9.945537515E0
1.199465973E1,-3.075253725E0,3.767172813E0,-7.886066437E0,9.264924194E0
1.200286731E1,-1.179774046E0,3.177863121E0,-8.993446350E0,9.611074761E0
1.201107531E1,1.861393452E-2,2.422976494E0,-9.073110580E0,9.391086049E0
1.201928404E1,4.093500376E-1,1.612298012E0,-8.160074234E0,8.327897924E0
1.202749250E1,2.435501814E-1,8.472919464E-1,-6.662381649E0,6.720457542E0
1.203571773E1,5.748391151E-2,2.187328339E-1,-5.218770504E0,5.223668637E0
1.204393396E1,-1.071548462E-1,-1.794452667E-1,-4.110056877E0,4.115367578E0
1.205214223E1,-9.455573559E-2,-1.041851044E-1,-3.641211271E0,3.643928491E0
1.206035088E1,-1.817787886E-1,-6.965732574E-2,-3.485781193E0,3.491212711E0
1.206856061E1,-1.124506593E-1,-3.174400330E-1,-3.203192711E0,3.220847228E0
1.207677808E1,6.405621767E-2,-8.122758865E-1,-3.308236837E0,3.407099395E0
1.208498623E1,2.906398773E-1,-1.451806545E0,-4.152103901E0,4.408194708E0
1.209321969E1,6.438067555E-1,-2.140703678E0,-4.451948166E0,4.981660551E0
1.210142788E1,3.722846508E-1,-2.806025982E0,-4.496188164E0,5.313010980E0
1.210963535E1,6.452822685E-2,-3.467570305E0,-4.290950298E0,5.517287574E0
1.211785988E1,-4.134781361E-1,-4.040486813E0,-3.888341904E0,5.622784062E0
1.212607527E1,-1.202056766E0,-4.407186031E0,-3.509048462E0,5.760351577E0
1.213428377E1,-2.225179434E0,-4.509691238E0,-3.308649063E0,6.019626002E0
1.214249111E1,-3.526808739E0,-4.408196926E0,-3.595541477E0,6.693168049E0
1.215069858E1,-4.502910614E0,-4.310862064E0,-3.915349245E0,7.361365053E0
1.215891608E1,-5.145187378E0,-4.313973904E0,-4.109833717E0,7.872360331E0
1.216712396E1,-5.498469353E0,-4.383499622E0,-4.466242790E0,8.330399680E0
1.217533208E1,-5.471583366E0,-4.578787804E0,-4.905845165E0,8.658570267E0
1.218354115E1,-4.955825806E0,-4.874707222E0,-5.110078335E0,8.627623109E0
1.219175042E1,-4.405272484E0,-5.093012810E0,-5.151481152E0,8.478382109E0
1.219997546E1,-3.952567101E0,-5.423927307E0,-4.955464363E0,8.342565623E0
1.220819285E1,-3.727108479E0,-5.860493660E0,-4.000814915E0,8.015188303E0
1.221640231E1,-3.702554703E0,-6.306759834E0,-2.777460814E0,7.822941870E0
1.222461046E1,-3.842247963E0,-6.552495956E0,-1.540161610E0,7.750494852E0
1.223281927E1,-3.926606655E0,-6.542266846E0,-5.307548046E-1,7.648607453E0
1.224103627E1,-3.956285000E0,-5.998996735E0,1.232957840E-1,7.187165969E0
1.224924338E1,-3.490712643E0,-5.029969215E0,6.391158104E-1,6.155821154E0
1.225745008E1,-2.439459324E0,-3.770020962E0,8.298888206E-1,4.566479530E0
1.226565954E1,-1.047094107E0,-2.234740257E0,9.284436703E-1,2.636755153E0
1.227386769E1,2.084323168E-1,3.732194901E-1,7.175838947E-1,8.352625123E-1
1.228209200E1,1.643047452E0,3.847919464E0,4.417304993E-1,4.207281185E0
1.229030823E1,2.795353413E0,7.113949776E0,7.347109318E-1,7.678677117E0
1.229851650E1,3.107953548E0,9.888449669E0,2.271044493E0,1.061124193E1
1.230672550E1,2.655768633E0,1.191116524E1,5.214152336E0,1.327088350E1
1.231493496E1,2.451488495E0,1.193296528E1,8.058712959E0,1.460644757E1
1.232317204E1,3.556832790E0,9.645349503E0,9.477924347E0,1.398266342E1
1.233138058E1,5.452748299E0,5.400642395E0,8.923357964E0,1.176969497E1
1.233961561E1,5.506237984E0,1.553579330E0,6.172300339E0,8.416029761E0
1.234782323E1,3.488109589E0,-9.638414383E-1,3.061875582E0,4.740356621E0
1.235603104E1,7.825134993E-1,-2.423921585E0,4.415836334E-1,2.585095614E0
1.236425315E1,-1.503688931E0,-2.933511734E0,-1.974170566E0,3.842384796E0
1.237246642E1,-2.928805828E0,-2.860117435E0,-4.107331753E0,5.798995555E0
1.238067150E1,-2.920720100E0,-2.505967140E0,-5.031409264E0,6.334473647E0
1.238887731E1,-2.114427567E0,-1.895207405E0,-5.215783119E0,5.938603252E0
1.239708296E1,-1.429523230E0,-8.533973694E-1,-4.610738754E0,4.902115420E0
1.240529638E1,-1.294401646E0,2.898731232E-1,-3.668396950E0,3.900850962E0
1.241350077E1,-1.783242226E0,1.918673515E0,-4.015517235E0,4.794334110E0
1.242170392E1,-2.737268448E0,4.267973900E0,-4.317817688E0,6.659713909E0
1.242990827E1,-4.404748917E0,7.469919205E0,-4.476267338E0,9.759020198E0
1.243811227E1,-7.162814617E0,1.097408772E1,-4.863241673E0,1.397811268E1
1.244633388E1,-1.180602074E1,1.330083370E1,-5.575573921E0,1.863816856E1
1.245454538E1,-1.611134148E1,1.368927670E1,-4.488186836E0,2.161285362E1
1.246274996E1,-1.330583000E1,1.107223320E1,2.045237160E1,2.679438307E1
1.247095450E1,-7.122489929E0,2.789981842E0,1.043956947E1,1.294212008E1
1.247916038E1,-5.782440662E0,-5.343818665E-1,-2.729157448E0,6.416423020E0
1.248737515E1,-3.659568787E0,-2.239960670E0,-6.412296772E0,7.715401312E0
1.249558265E1,-2.168487549E0,-4.548370361E0,-6.434686661E0,8.172833267E0
1.250378819E1,-1.325433969E0,-6.586002350E0,-5.239147186E0,8.519440439E0
1.251199361E1,-1.157876253E0,-7.737991810E0,-4.022192001E0,8.797455494E0
1.252019950E1,-1.002344489E0,-8.501974106E0,-2.999670982E0,9.071178764E0
1.252842184E1,-9.050943851E-1,-8.860987663E0,-2.545606136E0,9.263714634E0
1.253663457E1,-6.349564791E-1,-8.378742218E0,-2.890907764E0,8.886159946E0
1.254484104E1,-3.019272089E-1,-6.694512844E0,-4.195030212E0,7.906069867E0
1.255304792E1,-1.447328925E-1,-4.446280003E0,-6.007610321E0,7.475408701E0
1.256125407E1,-3.834313154E-1,-1.973026276E0,-7.938181877E0,8.188686328E0
1.256947307E1,-1.483909607E0,7.270917892E-1,-9.944224358E0,1.008058769E1
1.257768234E1,-2.279129982E0,2.590077400E0,-1.036867905E1,1.092759990E1
1.258591511E1,-2.717162848E0,4.074028969E0,-9.439501762E0,1.063413746E1
1.259412161E1,-2.526342154E0,4.567449570E0,-6.962825298E0,8.702007606E0
1.260233050E1,-2.315023422E0,4.529477119E0,-3.352247238E0,6.092048750E0
1.261055511E1,-2.814975500E0,4.388207436E0,-8.858467340E-1,5.288211040E0
1.261877065E1,-3.054366827E0,3.672324181E0,7.003321648E-1,4.827586016E0
1.262697815E1,-3.083023548E0,2.900864601E0,1.557428002E0,4.510613219E0
1.263518646E1,-2.618226290E0,1.965958595E0,1.911478400E0,3.791286296E0
1.264339346E1,-1.876523018E0,9.902095795E-1,2.157353401E0,3.025892818E0
1.265160896E1,-1.079297304E0,-2.489757538E-2,2.233759403E0,2.480964254E0
1.265981569E1,9.261107445E-2,-9.989538193E-1,2.752910852E0,2.930017697E0
1.266802361E1,1.873082280E0,-2.236805916E0,6.177701950E0,6.831964528E0
1.267623223E1,2.515279770E0,-3.164085388E0,6.858000278E0,7.960542474E0
1.268444111E1,2.020001888E0,-3.284415722E0,4.925576687E0,6.255325728E0
1.269266504E1,1.495454788E0,-2.796836853E0,2.166670799E0,3.840982135E0
1.270088019E1,1.278548598E0,-2.433349609E0,5.788599253E-1,2.809084487E0
1.270908965E1,1.437021255E0,-2.175419807E0,-1.948031783E-1,2.614465472E0
1.271729684E1,1.697425842E0,-1.932772160E0,-7.389286160E-1,2.676355397E0
1.272550492E1,2.154009104E0,-1.663723946E0,-1.408968210E0,3.064787758E0
1.273372127E1,2.679825783E0,-1.377855301E0,-2.051899433E0,3.645578519E0
1.274192792E1,3.121749401E0,-1.205118179E0,-2.554165602E0,4.209678262E0
1.275013711E1,3.294460297E0,-1.139575958E0,-2.886349440E0,4.525827559E0
1.275834654E1,2.950726509E0,-1.199320793E0,-3.021914482E0,4.390572222E0
1.276655392E1,1.857809782E0,-1.213115692E0,-2.787636042E0,3.562867043E0
1.277477834E1,8.451743126E-1,-1.107148170E0,-2.183456898E0,2.589899750E0
1.278299504E1,4.732688665E-1,-9.266977310E-1,-1.479995847E0,1.809182083E0
1.279120200E1,6.723242402E-1,-7.146720886E-1,-7.440286279E-1,1.231403540E0
1.279940988E1,9.689733982E-1,-4.758806229E-1,-8.182829618E-2,1.082620748E0
1.280761954E1,1.102774858E0,-2.032251358E-1,3.849893510E-1,1.185592529E0
1.281583627E1,1.049559355E0,2.038164139E-1,7.268863320E-1,1.292857188E0
1.282404457E1,5.824406147E-1,8.099250793E-1,2.058608770E0,2.287593883E0
1.283227634E1,-4.834080935E-1,1.564989090E0,5.305821419E0,5.552892504E0
1.284048415E1,-5.437924862E-1,1.858198166E0,6.250471592E0,6.543470472E0
1.284869246E1,5.387955904E-1,1.651311874E0,4.091756821E0,4.445177778E0
1.285691754E1,1.360194564E0,1.245259285E0,1.412679195E0,2.323028723E0
1.286513373E1,1.506500006E0,8.932657242E-1,-3.272837400E-1,1.781735269E0
1.287334138E1,1.184496760E0,4.679660797E-1,-1.157659054E0,1.721104097E0
1.288154738E1,9.615827799E-1,4.686164856E-2,-1.240838766E0,1.570515298E0
1.288975438E1,8.268202543E-1,-4.403591156E-1,-8.712625504E-1,1.279314784E0
1.289797000E1,9.282133579E-1,-8.453311920E-1,-5.083765984E-1,1.354478360E0
1.290617769E1,1.221926570E0,-1.148615837E0,-3.247863054E-1,1.708188815E0
1.291438411E1,1.649049163E0,-1.273206711E0,-3.812654018E-1,2.117966425E0
1.292258980E1,1.965643287E0,-1.245355606E0,-4.458941221E-1,2.369279571E0
1.293079676E1,2.082777023E0,-1.186944962E0,-3.588166237E-1,2.423952937E0
1.293902000E1,1.887531877E0,-1.025691986E0,-2.370684147E-1,2.161254744E0
1.294723388E1,1.388722539E0,-7.556791306E-1,-6.201744080E-3,1.581024889E0
1.295544134E1,9.327099323E-1,-2.515764236E-1,3.810561895E-1,1.038480782E0
1.296364900E1,3.471980095E-1,4.323644638E-1,8.530331850E-1,1.017423757E0
1.297185565E1,-5.641210079E-2,1.483741760E0,1.570991516E0,2.161639720E0
1.298006827E1,-3.521940708E-1,2.706540108E0,2.828689337E0,3.930761171E0
1.298827311E1,-2.456040382E-1,4.106714249E0,4.035536766E0,5.762896863E0
1.299647846E1,3.950531483E-1,5.488536835E0,4.308441162E0,6.988760178E0
1.300468638E1,8.532817364E-1,6.958280563E0,3.777770042E0,7.963498265E0
1.301289407E1,1.029610753E0,7.605880737E0,1.935603380E0,7.915559395E0
1.302111742E1,7.147474289E-1,6.879261017E0,-8.278917074E-1,6.965665848E0
1.302933161E1,-1.109632254E-1,5.264289856E0,-1.051035404E0,5.369332914E0
1.303753680E1,-1.438240767E0,3.624436378E0,5.833557248E-1,3.942762923E0
1.304574303E1,-2.648650885E0,2.523853302E0,2.278052807E0,4.309838928E0
1.305394853E1,-2.639756680E0,1.752918243E0,2.672979832E0,4.145583056E0
1.306216207E1,-2.293810844E0,1.363729477E0,2.065046072E0,3.374276449E0
1.307036757E1,-1.583750129E0,1.623525620E0,1.180237770E0,2.556767706E0
1.307860065E1,-8.100828528E-1,1.932014465E0,3.343712091E-1,2.121489625E0
1.308680815E1,-4.518901706E-1,2.538866043E0,1.617076397E-1,2.583833368E0
1.309501707E1,-1.238708138E0,3.332612038E0,5.016026497E-1,3.590585755E0
1.310324265E1,-2.224226475E0,4.226358414E0,1.331370115E0,4.958007184E0
1.311145715E1,-4.341763496E0,5.423442841E0,2.297903299E0,7.317445051E0
1.311966450E1,-7.613687038E0,6.788146019E0,1.204815626E0,1.027125783E1
1.312787100E1,-9.773778915E0,7.384353638E0,-5.059473515E-1,1.226015561E1
1.313607853E1,-1.094444466E1,7.474515915E0,-2.026703596E0,1.340734069E1
1.314429596E1,-1.076437759E1,6.519948959E0,-2.886593580E0,1.291177687E1
1.315250492E1,-8.743164062E0,5.040549278E0,-3.614534140E0,1.071983731E1
1.316071307E1,-6.057573795E0,3.499172211E0,-5.226474762E0,8.732379108E0
1.316892161E1,-3.745678902E0,2.383926392E0,-6.754081726E0,8.082749250E0
1.317712957E1,-1.694621921E0,1.457903862E0,-6.565721035E0,6.935843124E0
1.318535380E1,-2.272869349E-1,2.621555328E-1,-4.937945366E0,4.950120131E0
1.319356742E1,2.510081530E-1,-7.967939377E-1,-3.528437853E0,3.625983915E0
1.320177500E1,-1.137777567E-1,-1.333503723E0,-2.867007732E0,3.164002354E0
1.320998265E1,-4.554638863E-1,-1.447275162E0,-2.486457825E0,2.912820842E0
1.321819026E1,-5.986796618E-1,-1.528604507E0,-2.844013453E0,3.283818143E0
1.322640657E1,-3.153608441E-1,-1.738737106E0,-3.652376890E0,4.057402634E0
1.323461430E1,1.387022734E-1,-2.111286163E0,-4.506532192E0,4.978513833E0
1.324282092E1,8.302352428E-1,-2.625333786E0,-5.156940460E0,5.845998884E0
1.325102838E1,1.222157836E0,-3.126778603E0,-5.820442200E0,6.719223289E0
1.325923550E1,1.104168296E0,-3.540755749E0,-5.980550766E0,7.037266967E0
1.326745830E1,4.115273952E-1,-3.780959606E0,-5.908224106E0,7.026529899E0
1.327567361E1,-5.052663088E-1,-3.862581730E0,-5.233291626E0,6.523969107E0
1.328388269E1,-1.798261762E0,-3.858847618E0,-4.781705379E0,6.402277457E0
1.329208976E1,-3.040701389E0,-3.866184235E0,-4.064249039E0,6.380545880E0
1.330029653E1,-4.116521835E0,-3.943169117E0,-3.536382198E0,6.708228809E0
1.330851142E1,-5.121876717E0,-4.022161007E0,-3.258581161E0,7.282152941E0
1.331671869E1,-5.973378181E0,-4.334719658E0,-3.172539234E0,8.033433052E0
1.332495138E1,-6.751782417E0,-4.862394333E0,-3.247682095E0,8.931790607E0
1.333315799E1,-6.842030048E0,-5.561643124E0,-3.362244368E0,9.436627396E0
1.334136538E1,-5.979224682E0,-6.357461929E0,-3.751828432E0,9.499719289E0
1.334958938E1,-4.960472107E0,-6.887739182E0,-3.868165016E0,9.327911618E0
1.335780403E1,-4.096284866E0,-7.353465080E0,-3.584264278E0,9.148767612E0
1.336601180E1,-3.455632210E0,-7.704810143E0,-3.286170483E0,9.061148368E0
1.337421907E1,-3.120210171E0,-7.909504414E0,-2.486832857E0,8.858911290E0
1.338242603E1,-2.731529236E0,-7.945459843E0,-1.772027016E0,8.586714379E0
1.339064242E1,-2.099601269E0,-7.635350227E0,-1.164762974E0,8.003972224E0
1.339884926E1,-1.324134111E0,-6.608368874E0,-3.007385731E-1,6.746429723E0
1.340705638E1,-7.981631160E-1,-4.651201725E0,8.305313587E-1,4.791714118E0
1.341526465E1,-3.123366833E-2,-2.200344563E0,2.335057974E0,3.208580290E0
1.342347326E1,1.252214313E0,9.400177002E-1,4.526392937E0,4.789562295E0
1.343169576E1,3.031406403E0,3.966885567E0,8.222101212E0,9.619176379E0
1.343991111E1,3.344887733E0,6.412593842E0,9.859588623E0,1.222788295E1
1.344811953E1,1.717560053E0,7.475648880E0,8.355637550E0,1.134248728E1
1.345632696E1,-2.146190405E-1,7.889486313E0,6.127275467E0,9.991674547E0
1.346453499E1,-1.583233237E0,7.305443764E0,5.444027901E0,9.247355073E0
1.347277169E1,-2.206518650E0,5.997874260E0,5.188811302E0,8.232070391E0
1.348097926E1,-1.970250607E0,4.257468224E0,4.232873440E0,6.318634400E0
1.348918592E1,-1.500094056E0,2.257298470E0,2.378082514E0,3.605683708E0
1.349739199E1,-1.126298547E0,5.829887390E-1,7.378811836E-1,1.467273978E0
1.350560049E1,-1.108060956E0,-5.241107941E-2,-8.983936310E-1,1.427465278E0
1.351382672E1,-1.939876556E0,4.602632523E-1,-2.424165487E0,3.138716557E0
1.352204180E1,-1.316249490E0,1.518393517E0,-4.095990181E0,4.562364207E0
1.353024965E1,-1.110661268E0,3.128311157E0,-5.756088734E0,6.644731496E0
