"Time (s)","Linear Acceleration x (m/s^2)","Linear Acceleration y (m/s^2)","Linear Acceleration z (m/s^2)","Absolute acceleration (m/s^2)"
2.129123700E-2,2.642407417E-1,-5.121505260E-2,2.275881767E-1,3.524805376E-1
2.951677600E-2,3.029246330E-1,-1.443409920E-2,8.016586304E-2,3.136849408E-1
3.772293000E-2,3.038511276E-1,9.670138359E-3,-1.181797981E-1,3.261678771E-1
4.592866000E-2,2.324705124E-1,-4.846811295E-3,-2.160511017E-1,3.174021255E-1
5.413543000E-2,1.778655052E-1,-2.975308895E-2,-1.728329659E-1,2.497851443E-1
6.234100600E-2,9.203815460E-2,-5.186450481E-2,-6.450986862E-2,1.237839728E-1
7.057627600E-2,7.328414917E-2,-5.616712570E-2,4.764938354E-2,1.039027251E-1
7.878319900E-2,5.451011658E-2,-5.607604980E-3,8.556604385E-2,1.016087885E-1
8.698758300E-2,8.118104935E-2,1.350760460E-3,6.595754623E-2,1.046068126E-1
9.519227600E-2,1.174316406E-1,3.445661068E-2,5.109310150E-2,1.326195810E-1
1.033993140E-1,1.639246941E-1,-4.592061043E-3,3.851890564E-2,1.684520657E-1
1.116418140E-1,1.620783806E-1,-2.358114719E-2,2.979087830E-2,1.664721250E-1
1.198473910E-1,1.408419609E-1,-2.926957607E-2,3.364276886E-2,1.477328736E-1
1.280529290E-1,1.362147331E-1,-3.844213486E-2,5.508995056E-2,1.518787474E-1
1.362899290E-1,7.404661179E-2,-1.984834671E-3,7.427024841E-2,1.048947572E-1
1.444960060E-1,8.368015289E-2,-1.556396484E-3,6.232690811E-2,1.043524501E-1
1.527358140E-1,8.618402481E-2,8.815526962E-4,6.699514389E-2,1.091641542E-1
1.609420450E-1,7.674360275E-2,-1.219034195E-3,5.731916428E-2,9.579432760E-2
1.691482370E-1,8.884716034E-2,-3.432869911E-2,6.922435760E-2,1.177467162E-1
1.773606600E-1,7.922458649E-2,-5.066454411E-2,7.416534424E-2,1.197661447E-1
1.855663910E-1,7.670736313E-2,-4.289603233E-2,8.881473541E-2,1.249485749E-1
1.938066980E-1,9.098577499E-2,-4.475688934E-2,1.201653481E-1,1.572300902E-1
2.020126210E-1,1.100077629E-1,-2.526724339E-2,1.036429405E-1,1.532383784E-1
2.102188140E-1,1.100482941E-1,-3.001320362E-2,9.163188934E-2,1.463141229E-1
2.184318140E-1,1.388058662E-1,-2.995228767E-2,6.527757645E-2,1.562861799E-1
2.266396210E-1,1.028733253E-1,-4.427552223E-2,6.052398682E-2,1.273043437E-1
2.348822750E-1,9.448289871E-2,-4.286682606E-2,6.691932678E-2,1.234616508E-1
2.430899670E-1,8.690690994E-2,-2.385234833E-2,5.539178848E-2,1.057827762E-1
2.512986980E-1,7.925987244E-2,-3.351676464E-2,6.071949005E-2,1.053202609E-1
2.595094290E-1,1.101160049E-1,-3.126204014E-2,4.425382614E-2,1.227242878E-1
2.677172750E-1,1.014113426E-1,-2.961874008E-2,3.959321976E-2,1.128235491E-1
2.759596590E-1,1.012969017E-1,-2.491199970E-2,4.689645767E-2,1.143719711E-1
2.841668520E-1,1.155934334E-1,-3.692078590E-2,3.739452362E-2,1.269777015E-1
2.923753130E-1,1.137924194E-1,-3.212964535E-2,6.088972092E-2,1.329984471E-1
3.005883130E-1,1.281409264E-1,-7.987976074E-3,6.335163116E-2,1.431689001E-1
3.087977750E-1,1.208553314E-1,-1.732933521E-2,7.789564133E-2,1.448241966E-1
3.170398130E-1,9.669780731E-2,-7.660150528E-3,9.015083313E-2,1.324247581E-1
3.252470050E-1,9.908151627E-2,6.663560867E-3,6.860542297E-2,1.206990222E-1
3.334530050E-1,1.111235619E-1,-2.936661243E-2,6.370449066E-2,1.314119708E-1
3.416652360E-1,1.255130768E-1,-3.418064117E-2,6.127452850E-2,1.437929641E-1
3.498719280E-1,1.209335327E-1,-1.986420155E-2,5.622005463E-2,1.348339734E-1
3.581152360E-1,1.115245819E-1,-1.501345634E-2,6.081867218E-2,1.279142178E-1
3.663236590E-1,9.978580475E-2,-2.702331543E-2,4.616212845E-2,1.132184106E-1
3.745308130E-1,1.144208908E-1,-1.751005650E-2,6.257915497E-2,1.315860668E-1
3.827486210E-1,9.053564072E-2,-1.272523403E-2,7.208395004E-2,1.164247812E-1
3.909560050E-1,9.784936905E-2,8.988738060E-3,8.872461319E-2,1.323909114E-1
3.991970820E-1,6.446695328E-2,1.859617233E-2,9.814262390E-2,1.188855766E-1
4.074036200E-1,8.864736557E-2,4.447340965E-3,8.114385605E-2,1.202599669E-1
4.156106970E-1,9.593105316E-2,4.400491714E-3,8.579874039E-2,1.287771530E-1
4.238218900E-1,1.128964424E-1,-2.178049088E-2,9.276771545E-2,1.477357287E-1
4.320311970E-1,1.037034988E-1,-1.218295097E-2,9.230422974E-2,1.393661035E-1
4.402740820E-1,1.015305519E-1,-9.684324265E-3,9.684848785E-2,1.406480313E-1
4.484809280E-1,8.494901657E-2,-1.448822021E-2,8.944845200E-2,1.242065598E-1
4.566872740E-1,7.791519165E-2,1.193678379E-2,8.689212799E-2,1.173179688E-1
4.649000050E-1,7.558774948E-2,3.595769405E-2,1.011953354E-1,1.313276800E-1
4.731078130E-1,7.325792313E-2,1.204371452E-2,1.011233330E-1,1.254500013E-1
4.813506200E-1,7.325601578E-2,7.219314575E-3,8.675241470E-2,1.137740911E-1
4.895574280E-1,6.846237183E-2,2.458453178E-3,8.915996552E-2,1.124394939E-1
4.977648890E-1,6.849241257E-2,-9.352684021E-3,9.155511856E-2,1.147215020E-1
5.059776970E-1,7.097244263E-2,-4.487395287E-3,9.386157990E-2,1.177591632E-1
5.141860050E-1,3.477048874E-2,9.862899780E-3,9.660387039E-2,1.031434509E-1
5.224343510E-1,5.138301849E-2,2.793788910E-3,9.202146530E-2,1.054323002E-1
5.306425430E-1,6.798553467E-2,7.829666138E-3,1.138181686E-1,1.328078014E-1
5.388508510E-1,9.890794754E-2,1.511418819E-2,1.236648560E-1,1.590729938E-1
5.470643120E-1,1.129608154E-1,2.475619316E-2,1.096949577E-1,1.593925929E-1
5.552712740E-1,1.030673981E-1,1.512670517E-2,1.100668907E-1,1.515467789E-1
5.635127350E-1,1.098680496E-1,6.788969040E-4,7.220506668E-2,1.314725100E-1
5.717186200E-1,9.972810745E-2,2.447462082E-2,8.243274689E-2,1.316809031E-1
5.799255810E-1,1.039171219E-1,1.728832722E-2,8.794784546E-2,1.372314760E-1
5.881361200E-1,8.425807953E-2,-1.381289959E-2,9.335756302E-2,1.265142472E-1
5.963439660E-1,7.894229889E-2,-1.952171326E-3,8.918428421E-2,1.191198307E-1
6.045874270E-1,9.043598175E-2,-1.377284527E-2,7.064914703E-2,1.155839956E-1
6.127945430E-1,7.319736481E-2,-1.118481159E-2,5.212450027E-2,9.055339725E-2
6.210010040E-1,7.765531540E-2,-1.575815678E-2,6.215429306E-2,1.007066217E-1
6.292231200E-1,9.643888474E-2,-2.277767658E-2,4.588317871E-2,1.091995748E-1
6.374307730E-1,1.058979034E-1,-1.529288292E-2,4.370355606E-2,1.155778484E-1
6.456730430E-1,1.105861664E-1,-5.302906036E-3,9.180879593E-2,1.438272437E-1
6.538804660E-1,1.223568916E-1,-5.133867264E-3,8.490705490E-2,1.490193729E-1
6.620877730E-1,9.103727341E-2,-1.450204849E-2,7.801151276E-2,1.207637805E-1
6.703005040E-1,1.076107025E-1,-3.117251396E-2,7.107782364E-2,1.326794857E-1
6.785081960E-1,1.074542999E-1,-3.596472740E-2,4.732561111E-2,1.227990295E-1
6.867509660E-1,1.050200462E-1,-4.064035416E-2,5.458259583E-2,1.251403543E-1
6.949581580E-1,9.311628342E-2,-2.129793167E-2,6.412172318E-2,1.150471187E-1
7.031650420E-1,9.550189972E-2,-2.364110947E-2,8.329820633E-2,1.289112334E-1
7.113776190E-1,1.074018478E-1,-1.637613773E-2,9.537553787E-2,1.445677282E-1
7.195841580E-1,1.194238663E-1,5.310654640E-3,8.816337585E-2,1.485363381E-1
7.278268500E-1,1.265649796E-1,9.958148003E-3,7.621002197E-2,1.480737188E-1
7.360339650E-1,1.049165726E-1,9.904742241E-3,7.392501831E-2,1.287264520E-1
7.442425420E-1,1.048312187E-1,2.185499668E-2,6.205177307E-2,1.237644854E-1
7.524542730E-1,1.023058891E-1,-6.882786751E-3,5.981779099E-2,1.187098809E-1
7.606617730E-1,8.767318726E-2,-7.019042969E-3,6.729269028E-2,1.107436720E-1
7.689043880E-1,7.563400269E-2,-6.925106049E-3,6.979322433E-2,1.031482119E-1
7.771117730E-1,9.487533569E-2,-9.251117706E-3,5.773210526E-2,1.114446431E-1
7.853180420E-1,6.140136719E-2,-6.646156311E-3,6.011962891E-2,8.618972715E-2
7.935306570E-1,9.036779404E-2,-8.883595467E-3,7.184028625E-2,1.157855051E-1
8.017372340E-1,1.049156189E-1,-1.356542110E-2,8.361482620E-2,1.348434162E-1
8.099809270E-1,8.359479904E-2,-6.148338318E-3,1.121244431E-1,1.399920827E-1
8.181864270E-1,9.358215332E-2,2.268469334E-2,1.236171722E-1,1.566953095E-1
8.263935040E-1,7.945775986E-2,1.193284988E-3,1.233377457E-1,1.467213653E-1
8.346051570E-1,8.432722092E-2,-1.329267025E-2,1.136350632E-1,1.421291766E-1
8.428115420E-1,6.284332275E-2,-3.747105598E-3,9.918308258E-2,1.174759885E-1
8.510526190E-1,6.766700745E-2,1.068484783E-2,1.135220528E-1,1.325905213E-1
8.592591570E-1,8.190584183E-2,8.203148842E-3,8.253097534E-2,1.165642332E-1
8.674649260E-1,6.971931458E-2,-8.684277534E-3,7.079267502E-2,9.973867022E-2
8.756978110E-1,5.525302887E-2,-1.446962357E-3,9.008312225E-2,1.056880306E-1
8.839053880E-1,8.159923553E-2,1.130104065E-3,7.096052170E-2,1.081439227E-1
8.921480420E-1,7.918834686E-2,3.834009171E-3,8.302450180E-2,1.147979172E-1
9.003553110E-1,8.874082565E-2,2.569830418E-2,7.115745544E-2,1.166135517E-1
9.085616950E-1,1.054315567E-1,1.387012005E-2,9.042835236E-2,1.395904018E-1
9.167717720E-1,8.357524872E-2,1.389610767E-2,5.968523026E-2,1.036351809E-1
9.249797720E-1,6.166124344E-2,2.817666531E-2,5.532264709E-2,8.750216393E-2
9.332222340E-1,3.974628448E-2,2.148509026E-3,2.950763702E-2,4.954880285E-2
9.414301570E-1,1.182770729E-1,7.508397102E-3,3.980255127E-2,1.250203387E-1
9.496376570E-1,1.346378326E-1,1.786661148E-2,1.194810867E-1,1.808930399E-1
9.578600800E-1,1.036973000E-1,3.268218040E-2,8.584308624E-2,1.385290236E-1
9.660658490E-1,9.695243835E-2,4.729688168E-2,9.734058380E-2,1.452995512E-1
9.743067340E-1,3.979682922E-3,5.970489979E-2,8.258819580E-2,1.019868767E-1
9.825131950E-1,1.024837494E-1,5.074095726E-2,6.555795670E-2,1.318158159E-1
9.907204260E-1,6.467247009E-2,-8.576512337E-3,7.944726944E-2,1.028005524E-1
9.989326950E-1,1.012783051E-1,3.895521164E-3,9.308719635E-2,1.376143026E-1
1.007139657E0,7.989788055E-2,-5.067348480E-3,1.049985886E-1,1.320380738E-1
1.015382464E0,3.196287155E-2,-1.641750336E-2,1.315445900E-1,1.363639935E-1
1.023588887E0,1.990318298E-2,-2.777409554E-2,1.341924667E-1,1.384743847E-1
1.031796964E0,5.105829239E-2,-3.680276871E-2,1.654090881E-1,1.769789802E-1
1.040012233E0,7.975435257E-2,-2.675616741E-2,1.679563522E-1,1.878456428E-1
1.048220849E0,8.443975449E-2,-3.589594364E-2,1.921281815E-1,2.129127263E-1
1.056462426E0,7.217359543E-2,-2.144539356E-2,1.901135445E-1,2.044800542E-1
1.064668656E0,6.906509399E-2,-2.855563164E-2,9.283971786E-2,1.191831554E-1
1.072875195E0,8.510494232E-2,-2.144253254E-2,2.666234970E-2,9.172521082E-2
1.081083772E0,1.036100388E-1,-1.879811287E-2,3.569126129E-3,1.053619848E-1
1.089291387E0,8.590269089E-2,-2.089226246E-2,4.549741745E-2,9.942722930E-2
1.097532964E0,1.210241318E-1,-6.616842747E-2,8.721780777E-2,1.631932819E-1
1.105738426E0,1.368966103E-1,-8.497166634E-2,1.099309921E-1,1.950530415E-1
1.113943964E0,1.432576180E-1,-7.239282131E-2,1.326246262E-1,2.082132492E-1
1.122177156E0,1.185884476E-1,-2.651774883E-2,1.192407608E-1,1.702491408E-1
1.130382964E0,1.176905632E-1,-2.883970737E-2,6.289291382E-2,1.365222180E-1
1.138624541E0,1.116862297E-1,-2.427923679E-2,1.165199280E-2,1.148871802E-1
1.146830733E0,1.482920647E-1,-1.966726780E-2,-7.858276367E-3,1.497968303E-1
1.155037695E0,1.444454193E-1,-2.928125858E-2,-6.090641022E-3,1.475092105E-1
1.163250541E0,1.435246468E-1,-3.634142876E-2,2.379512787E-2,1.499540989E-1
1.171456656E0,1.669301987E-1,-2.640259266E-2,3.172063828E-2,1.719563521E-1
1.179696848E0,1.595039368E-1,-5.485761166E-2,6.799745560E-2,1.818640079E-1
1.187902810E0,1.734466553E-1,-6.775617599E-3,6.137943268E-2,1.841116128E-1
1.196109271E0,1.227235794E-1,-9.117960930E-3,3.799390793E-2,1.287934439E-1
1.204321733E0,1.082363129E-1,-4.413604736E-3,2.375888824E-2,1.109011456E-1
1.212527502E0,9.627056122E-2,-3.558123112E-2,2.134704590E-2,1.048319671E-1
1.220770079E0,7.968425751E-2,-3.981232643E-2,5.717992783E-2,1.058496404E-1
1.228974848E0,1.181287766E-1,-2.729237080E-2,7.390356064E-2,1.419894983E-1
1.237179771E0,1.255216599E-1,-2.443242073E-2,1.000947952E-1,1.623933444E-1
1.245388117E0,1.448659897E-1,2.196669579E-3,9.514141083E-2,1.733287869E-1
1.253591848E0,1.833486557E-1,9.581565857E-3,6.384992599E-2,1.943845390E-1
1.261829925E0,1.215195656E-1,5.271947384E-2,8.249950409E-2,1.560529267E-1
1.270033810E0,1.601347923E-1,5.981767178E-2,6.773710251E-2,1.838739259E-1
1.278239463E0,2.273950577E-1,3.149223328E-2,4.122638702E-2,2.332378357E-1
1.286448309E0,1.652379036E-1,5.267941952E-2,7.215070724E-2,1.878414506E-1
1.294651156E0,1.126708984E-1,5.447053909E-2,6.469726562E-2,1.408811810E-1
1.302890771E0,9.845495224E-2,6.833422184E-2,5.481767654E-2,1.317874089E-1
1.311094502E0,6.992864609E-2,2.699410915E-2,4.962682724E-2,8.989727167E-2
1.319297463E0,3.945922852E-2,5.052304268E-2,2.717924118E-2,6.962987655E-2
1.327506079E0,4.056549072E-2,3.579604626E-2,5.925798416E-2,8.023979469E-2
1.335711194E0,-2.691869736E-1,1.529884338E-1,1.430749893E-2,3.099545001E-1
1.343952309E0,-2.824115753E-2,9.662854671E-2,1.988792419E-2,1.026166095E-1
1.352157925E0,1.883354187E-1,7.234334946E-2,1.664161682E-2,2.024369866E-1
1.360362040E0,1.891074181E-1,7.621085644E-2,2.802085876E-2,2.058030095E-1
1.368604963E0,1.826400757E-1,7.968664169E-2,5.374383926E-2,2.063873988E-1
1.376808386E0,2.211170197E-1,1.071257591E-1,4.901123047E-2,2.505409455E-1
1.385047078E0,2.430739403E-1,7.106792927E-2,1.280593872E-1,2.837865354E-1
1.393251578E0,2.451696396E-1,9.435057640E-2,1.815114021E-1,3.193063929E-1
1.401455886E0,2.201895714E-1,6.918513775E-2,2.381272316E-1,3.316241985E-1
1.409661271E0,6.319618225E-2,8.333337307E-2,1.942586899E-1,2.206233150E-1
1.417864847E0,-9.368658066E-2,2.722847462E-2,7.104873657E-2,1.206917072E-1
1.426101694E0,-2.546186447E-1,-3.810811043E-2,-1.227712631E-2,2.577471826E-1
1.434305040E0,-3.614578247E-1,-1.310769320E-1,-3.003978729E-2,3.856621708E-1
1.442509424E0,-3.139910698E-1,-2.412850857E-1,4.232311249E-2,3.982463187E-1
1.450719309E0,-1.966285706E-1,-3.161119223E-1,1.744232178E-1,4.111119082E-1
1.458923463E0,3.590106964E-2,-3.245352507E-1,3.305959702E-1,4.646565519E-1
1.467164501E0,2.606816292E-1,-2.896531820E-1,4.372396469E-1,5.856896674E-1
1.475369155E0,4.530825615E-1,-2.108626366E-1,4.732093811E-1,6.882397674E-1
1.483574809E0,5.177311897E-1,-1.532858610E-1,3.948063850E-1,6.688902912E-1
1.491785655E0,3.086733818E-1,-2.617108822E-2,2.952342033E-1,4.279338936E-1
1.499991924E0,1.184048653E-1,6.638932228E-2,1.431808472E-1,1.973018227E-1
1.508232116E0,7.620048523E-2,3.648042679E-2,-2.047300339E-2,8.692801249E-2
1.516440116E0,1.208114624E-2,1.619768143E-2,-1.285982132E-1,1.301761092E-1
1.524647193E0,1.253890991E-2,-7.829844952E-2,-1.719965935E-1,1.893956167E-1
1.532860309E0,-8.245468140E-3,-8.880949020E-2,-1.726255417E-1,1.943056637E-1
1.541066116E0,6.977176666E-2,-1.010962725E-1,-1.643061638E-1,2.051464628E-1
1.549307539E0,1.265487671E-1,-1.055117846E-1,-9.634113312E-2,1.908636714E-1
1.557514078E0,1.882119179E-1,-8.805119991E-2,3.137588501E-4,2.077903710E-1
1.565718962E0,2.186427116E-1,-3.477227688E-2,1.066555977E-1,2.457420662E-1
1.573925770E0,1.313810349E-1,6.332135201E-2,8.879613876E-2,1.707493022E-1
1.582128770E0,2.836694717E-1,8.257758617E-2,6.363582611E-2,3.022200280E-1
1.590365808E0,2.062950134E-1,7.271432877E-2,5.731439590E-2,2.261193184E-1
1.598569770E0,7.638454437E-2,1.080137491E-1,3.637981415E-2,1.372044442E-1
1.606772924E0,8.971214294E-3,9.096276760E-2,8.554458618E-4,9.140809353E-2
1.615008808E0,4.441165924E-2,8.906400204E-2,1.592159271E-2,1.007883379E-1
1.623211847E0,9.171676636E-2,9.467625618E-2,2.401590347E-2,1.339862767E-1
1.631450424E0,8.358049393E-2,7.862913609E-2,8.042430878E-2,1.401296166E-1
1.639655962E0,1.348199844E-1,1.269786358E-1,1.421513557E-1,2.334673641E-1
1.647861885E0,1.827340126E-1,1.055529118E-1,1.833891869E-1,2.795795601E-1
1.656071885E0,2.201409340E-1,6.423103809E-2,1.896786690E-1,2.975998228E-1
1.664275577E0,1.088485718E-1,5.870127678E-2,1.603498459E-1,2.024991964E-1
1.672514270E0,-9.299278259E-2,5.754661560E-2,1.136322021E-1,1.577071588E-1
1.680719923E0,-9.005117416E-2,-1.732683182E-2,6.307601929E-2,1.113014702E-1
1.688925539E0,-1.267027855E-1,-9.586048126E-2,4.255580902E-2,1.644804688E-1
1.697135731E0,-9.321355820E-2,-1.327618361E-1,4.054260254E-2,1.672069830E-1
1.705340731E0,-7.858943939E-2,-1.691179276E-1,7.900762558E-2,2.025324130E-1
1.713579539E0,1.059675217E-2,-2.143797874E-1,1.722850800E-1,2.752328709E-1
1.721784000E0,1.478209496E-1,-1.514458656E-1,2.319664955E-1,3.139989465E-1
1.729989962E0,1.796712875E-1,-7.700288296E-2,2.891769409E-1,3.490480178E-1
1.738198385E0,2.279515266E-1,-3.454518318E-2,2.915167809E-1,3.716682684E-1
1.746405423E0,2.063837051E-1,1.429212093E-2,2.582583427E-1,3.309016018E-1
1.754642731E0,1.315708160E-1,5.003190041E-2,1.919064522E-1,2.379961283E-1
1.762848654E0,7.554864883E-2,5.645203590E-2,1.186780930E-1,1.515879957E-1
1.771052692E0,1.630783081E-4,4.332792759E-2,4.561042786E-2,6.290983256E-2
1.779262115E0,-2.973699570E-2,8.867383003E-3,-2.261161804E-2,3.839537296E-2
1.787466384E0,-2.583932877E-2,-3.806352615E-3,-2.408027649E-2,3.552490601E-2
1.795706115E0,-8.883047104E-2,-3.527569771E-2,-2.803659439E-2,9.960561259E-2
1.803912461E0,2.542543411E-2,-1.019489765E-1,1.118183136E-2,1.056649415E-1
1.812119192E0,1.299600601E-1,-7.738816738E-2,5.543136597E-2,1.610937057E-1
1.820330346E0,2.079029083E-1,-7.197785378E-2,1.167550087E-1,2.490705980E-1
1.828535500E0,2.186837196E-1,-3.839480877E-2,1.302123070E-1,2.573945910E-1
1.836775577E0,2.029781342E-1,-2.677822113E-2,1.174178123E-1,2.360172424E-1
1.844979307E0,2.040410042E-1,-8.454799652E-3,9.731149673E-2,2.262161409E-1
1.853185423E0,1.621370316E-1,-9.351491928E-3,6.027126312E-2,1.732295949E-1
1.861416730E0,1.082220078E-1,-1.765835285E-2,-3.112316132E-3,1.096973423E-1
1.869622115E0,9.044027328E-2,-3.567552567E-2,-9.339809418E-3,9.766994524E-2
1.877860499E0,7.263994217E-2,-3.650224209E-2,-1.782989502E-2,8.322788014E-2
1.886065461E0,9.088563919E-2,-7.516562939E-2,3.348541260E-2,1.226023822E-1
1.894269769E0,8.037090302E-2,-8.462667465E-3,-1.571226120E-2,8.232845161E-2
1.902477076E0,1.080327034E-1,-2.258718014E-2,9.101676941E-2,1.430569747E-1
1.910682999E0,1.763238907E-1,1.638031006E-2,1.500539780E-1,2.321090806E-1
1.918922307E0,1.753482819E-1,3.120064735E-2,1.729264259E-1,2.482419166E-1
1.927128422E0,1.456618309E-1,5.763995647E-2,1.549844742E-1,2.203631566E-1
1.935334845E0,1.468834877E-1,7.131743431E-2,9.880876541E-2,1.908510087E-1
1.943546422E0,1.025738716E-1,9.432089329E-2,5.938434601E-2,1.514738611E-1
1.951753499E0,9.671211243E-2,1.124550104E-1,5.398273468E-3,1.484200236E-1
1.959995268E0,4.042243958E-2,5.855274200E-2,-2.211380005E-2,7.450783429E-2
1.968202768E0,4.398155212E-2,2.420091629E-2,-1.637935638E-3,5.022692614E-2
1.976408768E0,6.657123566E-2,2.863705158E-2,4.784154892E-2,8.683676608E-2
1.984621268E0,1.585249901E-1,-4.971385002E-3,9.507608414E-2,1.849171407E-1
1.992827768E0,1.521697044E-1,9.088039398E-3,1.400470734E-1,2.070057829E-1
2.001068461E0,5.245065689E-2,3.251254559E-2,1.753778458E-1,1.859180621E-1
2.009275114E0,1.300830841E-1,1.494812965E-2,1.840767860E-1,2.258966988E-1
2.017482576E0,8.301687241E-2,5.209445953E-5,1.907014847E-1,2.079876440E-1
2.025696037E0,1.918077469E-2,-2.741968632E-2,1.684579849E-1,1.717493348E-1
2.033902884E0,-5.947589874E-3,-5.013811588E-2,1.241612434E-1,1.340343943E-1
2.042143768E0,-4.994678497E-2,-7.977104187E-2,6.281852722E-2,1.131559447E-1
2.050348307E0,-4.567861557E-2,-7.535088062E-2,4.661750793E-2,9.968692581E-2
2.058553153E0,-7.938814163E-2,-9.184110165E-2,4.213333130E-2,1.285009050E-1
2.066760768E0,1.616477966E-2,-1.102653742E-1,6.652164459E-2,1.297878347E-1
2.074967076E0,9.750556946E-2,-1.137354374E-1,1.100220680E-1,1.858707649E-1
2.083208999E0,1.619296074E-1,-1.097561121E-1,1.202621460E-1,2.296314126E-1
2.091415460E0,1.972322464E-1,-8.205509186E-2,1.476993561E-1,2.597088695E-1
2.099622652E0,2.226614952E-1,-5.729138851E-2,1.466417313E-1,2.726980785E-1
2.107846460E0,2.046489716E-1,-3.315520287E-2,1.171312332E-1,2.381180271E-1
2.116051806E0,1.720266342E-1,-2.469778061E-3,1.045327187E-1,2.013115793E-1
2.124292152E0,1.491951942E-1,1.817226410E-2,6.042289734E-2,1.619887764E-1
2.132499191E0,1.527595520E-1,1.473402977E-2,2.817916870E-2,1.560340921E-1
2.140704922E0,1.156973839E-1,8.731007576E-3,1.974201202E-2,1.176939343E-1
2.148914152E0,6.413173676E-2,2.192890644E-2,1.148939133E-2,6.874418310E-2
2.157119768E0,8.930635452E-2,1.634585857E-2,-8.798599243E-3,9.121528051E-2
2.165360537E0,1.622929573E-1,6.391763687E-3,1.180696487E-2,1.628473612E-1
2.173566152E0,1.824970245E-1,-3.555774689E-3,6.219387054E-3,1.826375872E-1
2.181770883E0,1.811585426E-1,1.755666733E-2,5.807018280E-2,1.910465919E-1
2.189983691E0,1.914734840E-1,2.893233299E-2,4.084920883E-2,1.979086477E-1
2.198188460E0,1.442790031E-1,4.488480091E-2,6.194496155E-2,1.633041774E-1
2.206428152E0,1.019821167E-1,5.838072300E-2,6.134128571E-2,1.325572113E-1
2.214632421E0,9.581947327E-2,4.310190678E-2,6.284427643E-2,1.224277293E-1
2.222837652E0,9.927368164E-2,1.355171204E-2,5.953216553E-2,1.165460917E-1
2.231046998E0,9.331655502E-2,2.481150627E-2,7.758808136E-2,1.238688849E-1
2.239252613E0,5.401659012E-2,2.639877796E-2,8.582162857E-2,1.047856833E-1
2.247492460E0,5.049514771E-2,2.809381485E-2,7.509613037E-2,9.475468944E-2
2.255696767E0,7.331562042E-2,3.454613686E-2,9.308910370E-2,1.234268893E-1
2.263901767E0,1.370401382E-1,2.226066589E-2,1.205062866E-1,1.838404250E-1
2.272113075E0,1.285738945E-1,2.667319775E-2,1.292147636E-1,1.842258423E-1
2.280318536E0,9.606456757E-2,3.075885773E-2,1.236066818E-1,1.595403405E-1
2.288560075E0,7.767248154E-2,4.401803017E-2,1.014509201E-1,1.351402625E-1
2.296765998E0,6.181335449E-2,-9.632110596E-5,8.153820038E-2,1.023199794E-1
2.304973306E0,8.233118057E-2,-7.733225822E-3,7.793998718E-2,1.136347996E-1
2.313184459E0,5.042648315E-2,-4.158020020E-2,1.051793098E-1,1.238322675E-1
2.321389267E0,5.475711823E-2,-6.812369823E-2,1.057071686E-1,1.371611670E-1
2.329631190E0,9.264087677E-2,-6.329154968E-2,1.062541008E-1,1.545253579E-1
2.337838421E0,5.621528625E-2,-3.210484982E-2,1.164941788E-1,1.332733037E-1
2.346045190E0,5.096626282E-2,-1.062858105E-1,1.146917343E-1,1.644640610E-1
2.354268959E0,5.047082901E-2,-1.176376343E-1,1.130762100E-1,1.707985564E-1
2.362478190E0,1.027574539E-1,-1.094311476E-1,1.353650093E-1,2.021335107E-1
2.370723536E0,9.515190125E-2,-8.440411091E-2,1.289830208E-1,1.811478896E-1
2.378932690E0,6.829118729E-2,-8.847987652E-2,9.151554108E-2,1.444557686E-1
2.387140613E0,5.335712433E-2,-8.063602448E-2,7.324266434E-2,1.212997899E-1
2.395353074E0,5.758142471E-2,-7.541859150E-2,5.012130737E-2,1.073113688E-1
2.403559844E0,7.604885101E-2,-9.888410568E-2,7.026147842E-2,1.431718179E-1
2.411802228E0,7.071542740E-2,-1.057054996E-1,7.822418213E-2,1.493095677E-1
2.420010267E0,1.203322411E-1,-1.004959345E-1,7.916450500E-2,1.756311474E-1
2.428217882E0,1.365737915E-1,-1.002691984E-1,6.790590286E-2,1.825308859E-1
2.436429651E0,1.310873032E-1,-9.074890614E-2,5.201768875E-2,1.677053516E-1
2.444637190E0,1.231598854E-1,-6.219840050E-2,3.136873245E-2,1.414955680E-1
2.452882074E0,1.345329285E-1,-5.039548874E-2,3.208446503E-2,1.472013146E-1
2.461089766E0,1.102299690E-1,-5.760288239E-2,1.577711105E-2,1.253700736E-1
2.469297266E0,1.289858818E-1,-4.083669186E-2,6.705284119E-3,1.354620018E-1
2.477511497E0,1.263127327E-1,-2.886462212E-2,-1.209449768E-2,1.301320473E-1
2.485719651E0,1.357021332E-1,-4.947185516E-5,-7.045745850E-3,1.358849290E-1
2.493960805E0,1.354117393E-1,1.671993732E-2,-1.385831833E-2,1.371420739E-1
2.502167343E0,1.230435371E-1,2.629017830E-2,-2.054023743E-2,1.274864183E-1
2.510375266E0,1.178073883E-1,3.835451603E-2,-2.713012695E-2,1.268293871E-1
2.518590074E0,2.299103737E-1,-4.213929176E-3,2.142381668E-2,2.309448355E-1
2.526798997E0,2.174930573E-1,-3.000760078E-2,5.324840546E-2,2.259183010E-1
2.535042574E0,1.618103981E-1,-5.868613720E-2,1.067147255E-1,2.025208638E-1
2.543250343E0,1.352224350E-1,-9.229874611E-2,9.264659882E-2,1.881158094E-1
2.551457651E0,8.475589752E-2,-9.727060795E-2,1.072044373E-1,1.677436279E-1
2.559667997E0,5.848455429E-2,-1.093801260E-1,1.238484383E-1,1.752794646E-1
2.567874728E0,4.915571213E-2,-7.612431049E-2,1.474108696E-1,1.730351385E-1
2.576117689E0,4.712295532E-2,-3.810751438E-2,1.780047417E-1,1.880384100E-1
2.584326304E0,1.891231537E-2,5.732703209E-2,1.820516586E-1,1.917990373E-1
2.592534612E0,-1.891899109E-2,1.382076740E-1,2.004699707E-1,2.442283737E-1
2.600758574E0,-2.802085876E-2,1.589977741E-1,1.996808052E-1,2.567837313E-1
2.608966651E0,-3.694486618E-2,2.151041031E-1,1.985192299E-1,2.950331896E-1
2.617209458E0,-5.374431610E-3,1.937686205E-1,1.830501556E-1,2.666130572E-1
2.625418958E0,2.269268036E-3,1.432433128E-1,1.554794312E-1,2.114181869E-1
2.633626420E0,3.829765320E-2,9.522187710E-2,1.571054459E-1,1.876593649E-1
2.641839535E0,5.992984772E-2,6.167602539E-2,1.587982178E-1,1.805890161E-1
2.650048381E0,6.697177887E-2,3.323864937E-2,1.584615707E-1,1.752144297E-1
2.658293766E0,8.815574646E-2,2.663493156E-2,1.369318962E-1,1.650187850E-1
2.666503612E0,1.114358902E-1,4.177153111E-2,1.277976036E-1,1.746283079E-1
2.674711420E0,9.398603439E-2,3.323626518E-2,1.091871262E-1,1.478507778E-1
2.682925881E0,9.540891647E-2,4.156970978E-2,7.899284363E-2,1.306551624E-1
2.691133227E0,7.770919800E-2,4.290497303E-2,7.274484634E-2,1.147665841E-1
2.699376343E0,6.477451324E-2,4.193913937E-2,5.218362808E-2,9.315449542E-2
2.707585189E0,6.609773636E-2,2.726483345E-2,2.952384949E-2,7.735592791E-2
2.715793766E0,3.138208389E-2,4.387032986E-2,3.818893433E-2,6.608960384E-2
2.724005189E0,7.581901550E-2,1.067018509E-2,5.396890640E-2,9.367507043E-2
2.732213804E0,7.967376709E-2,8.768558502E-3,6.485319138E-2,1.031054471E-1
2.740456727E0,1.243319511E-1,-3.321099281E-2,3.026866913E-2,1.322028610E-1
2.748664612E0,1.136803627E-1,-6.070017815E-2,5.348587036E-2,1.395294765E-1
2.756871573E0,7.929801941E-2,-3.319466114E-2,2.613925934E-2,8.985166826E-2
2.765082996E0,1.142454147E-1,-4.391777515E-2,8.519172668E-3,1.226921435E-1
2.773289688E0,1.132903099E-1,-8.324778080E-2,1.964855194E-2,1.419540521E-1
2.781533342E0,1.146121025E-1,-7.958996296E-2,2.169609070E-3,1.395535863E-1
2.789740034E0,1.159334183E-1,-8.300399780E-2,3.978586197E-2,1.480308614E-1
2.797945111E0,1.199498177E-1,-9.376585484E-2,1.951932907E-2,1.534959234E-1
2.806154573E0,1.145420074E-1,-9.961426258E-2,3.021430969E-2,1.547765399E-1
2.814360073E0,1.523656845E-1,-1.293601990E-1,5.750560760E-2,2.079813881E-1
2.822599496E0,1.949129105E-1,-1.396726370E-1,4.425001144E-2,2.438391923E-1
2.830805111E0,1.989793777E-1,-1.020416021E-1,2.644205093E-2,2.251765161E-1
2.839009804E0,1.886153221E-1,-8.640658855E-2,3.733730316E-2,2.107982744E-1
2.847228727E0,1.542396545E-1,-6.127786636E-2,2.914714813E-2,1.685063921E-1
2.855433303E0,1.604361534E-1,-8.149147034E-2,2.355480194E-2,1.814812601E-1
2.863674419E0,1.714053154E-1,-8.004498482E-2,2.519416809E-2,1.908447742E-1
2.871881842E0,1.585140228E-1,-6.442928314E-2,3.386116028E-2,1.744259331E-1
2.880089842E0,1.383910179E-1,-5.116724968E-2,1.147985458E-2,1.479930686E-1
2.888300111E0,1.780996323E-1,-7.140481472E-2,-1.086616516E-2,1.921879292E-1
2.896508496E0,1.797194481E-1,-7.493531704E-2,2.409458160E-3,1.947310639E-1
2.904749303E0,1.647400856E-1,-7.822716236E-2,8.358001709E-3,1.825613347E-1
2.912955419E0,1.641197205E-1,-8.879327774E-2,7.108688354E-3,1.867352732E-1
2.921161226E0,1.611266136E-1,-8.979964256E-2,2.019357681E-2,1.855627710E-1
2.929373495E0,1.558566093E-1,-7.630646229E-2,2.598094940E-2,1.754678563E-1
2.937578765E0,1.386890411E-1,-6.807613373E-2,3.873682022E-2,1.592782200E-1
2.945819188E0,1.408324242E-1,-6.955671310E-2,3.210496902E-2,1.603204200E-1
2.954024649E0,1.002326012E-1,-6.407332420E-2,2.257156372E-2,1.210844362E-1
2.962230418E0,1.148395538E-1,-6.086659431E-2,2.964782715E-2,1.333111364E-1
2.970442649E0,1.271791458E-1,-4.097425938E-2,4.612112045E-2,1.413526894E-1
2.978649457E0,8.219718933E-2,-9.359955788E-3,5.277538300E-2,9.812862863E-2
2.986893649E0,9.228801727E-2,5.312561989E-3,4.261779785E-2,1.017918373E-1
2.995101072E0,8.795595169E-2,1.741826534E-2,9.234714508E-2,1.287153472E-1
3.003308303E0,6.442546844E-2,2.235054970E-2,9.185647964E-2,1.144019270E-1
3.011531303E0,6.711959839E-2,2.972412109E-2,1.106739044E-1,1.328054102E-1
3.019739111E0,7.694292068E-2,5.388140678E-2,1.104121208E-1,1.449629451E-1
3.027982495E0,6.056308746E-2,6.356835365E-2,1.123485565E-1,1.425868904E-1
3.036188841E0,6.571626663E-2,3.975021839E-2,1.143064499E-1,1.377122799E-1
3.044394610E0,5.902385712E-2,4.444801807E-2,1.208391190E-1,1.416387471E-1
3.052605149E0,7.380580902E-2,5.397701263E-2,1.442346573E-1,1.707760279E-1
3.060810841E0,6.466579437E-2,6.363534927E-2,1.317272186E-1,1.599474375E-1
3.069052303E0,6.015586853E-2,7.531964779E-2,1.384811401E-1,1.687270104E-1
3.077260303E0,3.886556625E-2,7.010698318E-2,1.356496811E-1,1.575638198E-1
3.085468456E0,4.141139984E-2,5.990004539E-2,1.329050064E-1,1.515475510E-1
3.093693226E0,5.123424530E-2,4.730522633E-2,1.252512932E-1,1.433548701E-1
3.101900495E0,4.654026031E-2,6.335365772E-2,1.512880325E-1,1.704926701E-1
3.110143572E0,8.981180191E-2,2.190566063E-2,1.317219734E-1,1.609245041E-1
3.118348802E0,5.648469925E-2,2.838456631E-2,1.241173744E-1,1.392886481E-1
3.126554495E0,8.758258820E-2,2.302491665E-2,1.000666618E-1,1.349599694E-1
3.134766610E0,7.287836075E-2,3.430986404E-2,7.638645172E-2,1.110104150E-1
3.142972610E0,9.391355515E-2,2.927148342E-2,7.219171524E-2,1.220172911E-1
3.151214495E0,8.615398407E-2,1.218128204E-2,9.200000763E-2,1.266289620E-1
3.159420533E0,9.764194489E-2,-2.310037613E-3,8.300876617E-2,1.281785510E-1
3.167628802E0,9.952020645E-2,-1.651418209E-2,7.652664185E-2,1.266227334E-1
3.175841495E0,9.190988541E-2,-4.433512688E-3,7.231235504E-2,1.170305933E-1
3.184048110E0,1.106524467E-1,-6.488800049E-3,7.292461395E-2,1.326803219E-1
3.192289225E0,9.587335587E-2,-1.229763031E-3,5.681180954E-2,1.114486177E-1
3.200496148E0,1.242613792E-1,-2.205312252E-2,3.588485718E-2,1.312057680E-1
3.208703802E0,1.382613182E-1,-1.674354076E-2,5.563640594E-2,1.499731574E-1
3.216930341E0,1.449480057E-1,-3.059732914E-2,5.161094666E-2,1.568751437E-1
3.225137956E0,1.419081688E-1,-2.285885811E-2,4.060649872E-2,1.493631263E-1
3.233381764E0,1.198830605E-1,-1.974391937E-2,4.618644714E-2,1.299806079E-1
3.241588687E0,1.097803116E-1,-2.138698101E-2,3.747367859E-2,1.179550607E-1
3.249796379E0,1.354479790E-1,-2.061796188E-2,4.809951782E-2,1.452061258E-1
3.258009725E0,7.997083664E-2,-8.069396019E-3,5.116415024E-2,9.527969424E-2
3.266217610E0,1.014146805E-1,-3.375124931E-2,4.667377472E-2,1.166298654E-1
3.274461956E0,1.107478142E-1,-3.798770905E-2,6.149291992E-2,1.322479625E-1
3.282669994E0,1.177816391E-1,-4.915690422E-2,5.230760574E-2,1.379311472E-1
3.290876725E0,1.392250061E-1,-8.211100101E-2,8.849668503E-2,1.842755602E-1
3.299089917E0,1.366624832E-1,-4.532527924E-2,8.654022217E-2,1.679887654E-1
3.307297763E0,1.123480797E-1,-4.247939587E-2,8.473730087E-2,1.469931979E-1
3.315541109E0,1.456961632E-1,-4.215109348E-2,1.017990112E-1,1.826667056E-1
3.323748725E0,1.335406303E-1,-6.550037861E-2,8.063793182E-2,1.691918308E-1
3.331954455E0,1.162919998E-1,-5.331015587E-2,5.977249146E-2,1.412039400E-1
3.340178955E0,8.721685410E-2,-2.434420586E-2,4.830360413E-2,1.026287395E-1
3.348386302E0,9.644079208E-2,-3.610014915E-2,2.965736389E-2,1.071615900E-1
3.356626917E0,9.857368469E-2,-4.763579369E-2,3.489065170E-2,1.149056036E-1
3.364832378E0,1.055998802E-1,-3.759646416E-2,6.872701645E-2,1.314847201E-1
3.373038609E0,1.174616814E-1,-4.659986496E-2,7.140731812E-2,1.451475080E-1
3.381249494E0,1.004929543E-1,-4.354083538E-2,7.184457779E-2,1.309819894E-1
3.389453494E0,1.146616936E-1,-2.888596058E-2,8.653354645E-2,1.465256201E-1
3.397694455E0,1.193203926E-1,-2.124810219E-2,8.681583405E-2,1.490832887E-1
3.405899032E0,8.078336716E-2,-2.068591118E-2,8.964872360E-2,1.224367305E-1
3.414101609E0,1.071343422E-1,-3.632426262E-3,7.533884048E-2,1.310225274E-1
3.422309071E0,1.048026085E-1,-2.492845058E-2,8.011102676E-2,1.342489888E-1
3.430512917E0,8.323287964E-2,-8.126616478E-3,8.733224869E-2,1.209159866E-1
3.438753378E0,8.797693253E-2,-1.274490356E-2,7.067203522E-2,1.135645622E-1
3.446959570E0,9.747982025E-2,-6.927251816E-4,7.797145844E-2,1.248292576E-1
3.455167032E0,1.044387817E-1,2.814829350E-2,7.828617096E-2,1.335234441E-1
3.463378455E0,1.017289162E-1,2.116763592E-2,1.002898216E-1,1.444122208E-1
3.471585340E0,1.133594513E-1,2.834582329E-2,6.960248947E-2,1.360086668E-1
3.479826301E0,1.082205772E-1,3.796589375E-2,7.245731354E-2,1.356582644E-1
3.488033263E0,7.908105850E-2,3.797459602E-2,5.622577667E-2,1.041979929E-1
3.496239609E0,1.004037857E-1,1.158905029E-2,6.129169464E-2,1.182027838E-1
3.504453109E0,9.307813644E-2,2.120256424E-3,5.192661285E-2,1.066039779E-1
3.512660532E0,9.052562714E-2,-9.844303131E-3,7.607269287E-2,1.186543470E-1
3.520902262E0,1.142892838E-1,-1.674854755E-2,9.791946411E-2,1.514291111E-1
3.529108686E0,1.021857262E-1,-2.602446079E-2,9.337949753E-2,1.408507215E-1
3.537314262E0,8.291387558E-2,2.431404591E-2,7.199907303E-2,1.124711079E-1
3.545524262E0,5.165433884E-2,1.974678040E-2,1.081409454E-1,1.214601586E-1
3.553729878E0,6.846761703E-2,1.737809181E-2,8.653020859E-2,1.117017890E-1
3.561970032E0,1.042385101E-1,2.232658863E-2,8.675289154E-2,1.374416521E-1
3.570173839E0,8.247089386E-2,-3.005373478E-2,8.471822739E-2,1.219912020E-1
3.578378878E0,6.309795380E-2,-8.260726929E-3,6.590700150E-2,9.161508734E-2
3.586593801E0,9.875822067E-2,-2.694106102E-2,6.156539917E-2,1.194541975E-1
3.594802339E0,1.225209236E-1,-3.360342979E-2,7.629156113E-2,1.481923396E-1
3.603043724E0,1.198625565E-1,-4.495906830E-2,7.678842545E-2,1.492809852E-1
3.611251224E0,1.362934113E-1,-6.365931034E-2,8.450889587E-2,1.725403003E-1
3.619457993E0,1.266059875E-1,-8.707726002E-2,8.239078522E-2,1.743552889E-1
3.627671877E0,1.217002869E-1,-8.668112755E-2,7.785463333E-2,1.684812204E-1
3.635878377E0,1.240010262E-1,-8.632087708E-2,4.933595657E-2,1.589389346E-1
3.644119916E0,1.000819206E-1,-6.424307823E-2,3.986406326E-2,1.254300900E-1
3.652326339E0,1.071548462E-1,-5.910730362E-2,4.009389877E-2,1.287763764E-1
3.660532954E0,1.047773361E-1,-6.349956989E-2,4.975032806E-2,1.322330544E-1
3.668745570E0,1.119174957E-1,-4.175078869E-2,6.422328949E-2,1.356218460E-1
3.676950762E0,1.189413071E-1,-1.768970490E-2,7.642841339E-2,1.424824991E-1
3.685191416E0,1.164126396E-1,-9.436607361E-4,8.856821060E-2,1.462775481E-1
3.693397493E0,1.160340309E-1,-1.285314560E-3,5.784320831E-2,1.296587256E-1
3.701604993E0,8.692979813E-2,8.050680161E-3,4.150390625E-2,9.666528584E-2
3.709815377E0,9.160566330E-2,3.033995628E-3,1.525497437E-2,9.291672035E-2
3.718021569E0,6.515693665E-2,5.623102188E-4,4.171657562E-2,7.736934320E-2
3.726263108E0,6.282138824E-2,-1.123356819E-2,4.886817932E-2,8.037921887E-2
3.734471223E0,5.815124512E-2,1.270389557E-2,9.180879593E-2,1.094157725E-1
3.742677685E0,1.158504486E-1,5.640506744E-3,1.035041809E-1,1.554550006E-1
3.750886839E0,1.137733459E-1,1.284754276E-2,1.294374466E-1,1.728105500E-1
3.759090262E0,1.236438751E-1,1.533615589E-2,1.219015121E-1,1.743071547E-1
3.767330108E0,1.287484169E-1,1.767802238E-2,1.071157455E-1,1.684115503E-1
3.775535569E0,1.312403679E-1,3.189098835E-2,9.019136429E-2,1.624055156E-1
3.783741377E0,1.192221642E-1,-6.503939629E-3,9.980821609E-2,1.556210322E-1
3.791953454E0,1.096291542E-1,-1.808285713E-3,6.149816513E-2,1.257133472E-1
3.800159877E0,6.885528564E-2,-3.531992435E-2,6.398725510E-2,1.004137253E-1
3.808404915E0,7.379007339E-2,-4.469394684E-2,4.948472977E-2,9.945482540E-2
3.816611915E0,9.311866760E-2,-3.489863873E-2,4.692125320E-2,1.099572883E-1
3.824817184E0,1.029119492E-1,-4.185068607E-2,3.712415695E-2,1.171347610E-1
3.833039107E0,1.390495300E-1,-2.722036839E-2,3.211593628E-2,1.452830122E-1
3.841245492E0,1.511540413E-1,-1.029539108E-2,3.916883469E-2,1.564855804E-1
3.849487146E0,1.463255882E-1,-4.855859280E-2,4.162549973E-2,1.596928205E-1
3.857692992E0,8.418464661E-2,-6.034433842E-2,3.914070129E-2,1.107270897E-1
3.865900146E0,8.910036087E-2,-5.796575546E-2,6.530714035E-2,1.247554636E-1
3.874110992E0,6.556224823E-2,-4.133093357E-2,6.715011597E-2,1.025465384E-1
3.882320146E0,7.086181641E-2,-3.656744957E-2,9.282350540E-2,1.223714777E-1
3.890564107E0,7.859563828E-2,-2.484190464E-2,8.486890793E-2,1.183094507E-1
3.898771684E0,7.686138153E-2,-4.174566269E-2,8.877229691E-2,1.246230036E-1
3.906979876E0,7.754564285E-2,-1.552617550E-2,1.261701584E-1,1.489070103E-1
3.915194453E0,1.114187241E-1,-1.327121258E-2,1.280736923E-1,1.702736850E-1
3.923401569E0,8.526134491E-2,-1.090395451E-2,1.445965767E-1,1.682158231E-1
3.931643646E0,9.001016617E-2,3.691959381E-2,1.422386169E-1,1.723273355E-1
3.939849530E0,8.980560303E-2,2.494537830E-2,1.233477592E-1,1.546026777E-1
3.948057876E0,7.520532608E-2,2.972030640E-2,1.020965576E-1,1.302414863E-1
3.956271107E0,6.795883179E-2,2.248561382E-2,9.258937836E-2,1.170333227E-1
3.964478953E0,7.266330719E-2,2.227902412E-2,9.743356705E-2,1.235702679E-1
3.972723607E0,6.774044037E-2,3.163087368E-2,8.557748795E-2,1.136344396E-1
3.980932761E0,7.714462280E-2,-4.327416420E-3,1.049413681E-1,1.303177275E-1
3.989139915E0,7.929754257E-2,-6.896972656E-3,1.004171371E-1,1.281376991E-1
3.997352107E0,9.341192245E-2,-2.253770828E-3,1.078872681E-1,1.427253634E-1
4.005559030E0,9.068965912E-2,-1.442408562E-2,1.010742188E-1,1.365601194E-1
4.013802145E0,1.238040924E-1,4.486560822E-3,8.956050873E-2,1.528681368E-1
4.022010953E0,1.233959198E-1,-1.977705956E-2,8.042669296E-2,1.486140574E-1
4.030216876E0,1.037292480E-1,6.215453148E-3,6.184673309E-2,1.209272804E-1
4.038424414E0,1.223516464E-1,2.720880508E-2,5.041742325E-2,1.351005589E-1
4.046630299E0,1.123919487E-1,2.437388897E-2,5.798101425E-2,1.287937677E-1
4.054871453E0,1.023263931E-1,2.395582199E-2,7.047319412E-2,1.265347511E-1
4.063077030E0,9.942007065E-2,3.796327114E-2,6.864595413E-2,1.266405441E-1
4.071283068E0,7.265043259E-2,4.706275463E-2,7.147693634E-2,1.122583656E-1
4.079506991E0,7.465648651E-2,4.187333584E-2,8.145284653E-2,1.181589330E-1
4.087713299E0,9.342193604E-2,2.937781811E-2,9.378767014E-2,1.355980877E-1
4.095954337E0,8.350181580E-2,1.708030701E-2,8.217668533E-2,1.183946694E-1
4.104161106E0,1.071138382E-1,9.604454041E-3,8.970880508E-2,1.400474547E-1
4.112367991E0,1.283946037E-1,-1.938343048E-4,9.478664398E-2,1.595923548E-1
4.120581299E0,9.238624573E-2,-1.961243153E-2,9.484195709E-2,1.338464146E-1
4.128788722E0,1.233415604E-1,-2.679920197E-2,1.070284843E-1,1.654884715E-1
4.137032068E0,1.161465645E-1,-5.078828335E-2,1.070342064E-1,1.659089977E-1
4.145239414E0,1.089162827E-1,-5.545186996E-2,9.276056290E-2,1.534346393E-1
4.153444837E0,1.159553528E-1,-6.500816345E-2,8.337354660E-2,1.569167086E-1
4.161655568E0,1.061067581E-1,-4.832684994E-2,7.652187347E-2,1.394622733E-1
4.169860106E0,1.273283958E-1,-3.885734081E-2,7.452154160E-2,1.525643257E-1
4.178099952E0,1.127457619E-1,-3.169691563E-2,6.043148041E-2,1.317887139E-1
4.186305606E0,9.823656082E-2,-4.143285751E-2,4.381704330E-2,1.152694099E-1
4.194510183E0,1.174902916E-1,-3.679633141E-2,3.886032104E-2,1.291048534E-1
4.202719760E0,1.127929688E-1,-5.143070221E-2,6.740474701E-2,1.411055309E-1
4.210927068E0,9.350728989E-2,-5.141294003E-2,6.997299194E-2,1.276053418E-1
4.219167875E0,1.148099899E-1,-5.641746521E-2,4.868602753E-2,1.368743710E-1
4.227373952E0,1.264510155E-1,-5.659067631E-2,5.625057220E-2,1.495208709E-1
4.235579375E0,1.308832169E-1,-5.184435844E-2,6.148576736E-2,1.536188580E-1
4.243791990E0,1.305518150E-1,-4.972791672E-2,6.663179398E-2,1.547786745E-1
4.251998144E0,1.085591316E-1,-3.333425522E-2,6.471681595E-2,1.307077805E-1
4.260238952E0,1.106324196E-1,-1.223540306E-2,3.389263153E-2,1.163526872E-1
4.268444452E0,1.127562523E-1,-3.172993660E-3,3.411102295E-2,1.178456711E-1
4.276650067E0,1.150612831E-1,-2.263784409E-2,3.654241562E-2,1.228288199E-1
4.284861029E0,9.375000000E-2,-2.520179749E-2,3.140401840E-2,1.020313945E-1
4.293066336E0,1.012592316E-1,-3.267371655E-2,5.006313324E-2,1.175896298E-1
4.301306298E0,1.063170433E-1,-3.998160362E-2,7.362604141E-2,1.353611329E-1
4.309510567E0,1.185789108E-1,-2.569818497E-2,9.238576889E-2,1.525007708E-1
4.317715529E0,1.188788414E-1,-1.878237724E-2,1.015090942E-1,1.574453964E-1
4.325932644E0,9.055471420E-2,7.087230682E-3,1.152324677E-1,1.467273209E-1
4.334135952E0,7.405424118E-2,-7.849931717E-3,9.320545197E-2,1.193017533E-1
4.342375567E0,7.678937912E-2,-3.460884094E-3,9.505844116E-2,1.222484916E-1
4.350580452E0,6.753396988E-2,5.513548851E-3,9.449148178E-2,1.162750035E-1
4.358785182E0,6.534337997E-2,3.037452698E-4,7.018232346E-2,9.589269051E-2
4.366993605E0,8.221387863E-2,6.998538971E-3,6.991577148E-2,1.081495099E-1
4.375199298E0,8.246564865E-2,-5.370259285E-3,9.822130203E-2,1.283621715E-1
4.383441105E0,9.228324890E-2,-1.026046276E-2,1.050677299E-1,1.402166288E-1
4.391646759E0,6.850194931E-2,-7.188320160E-4,1.144280434E-1,1.333672032E-1
4.399850951E0,7.329082489E-2,1.570749283E-2,1.119494438E-1,1.347254553E-1
4.408060990E0,7.571840286E-2,1.274549961E-2,1.261286736E-1,1.476623398E-1
4.416265836E0,5.669546127E-2,-2.224683762E-3,9.707593918E-2,1.124413737E-1
4.424504874E0,5.668067932E-2,-1.248383522E-2,8.016490936E-2,9.896948137E-2
4.432708028E0,7.346200943E-2,-3.695368767E-2,6.324434280E-2,1.037404876E-1
4.440911797E0,6.615447998E-2,-2.304589748E-2,4.653024673E-2,8.409870673E-2
4.449120836E0,1.019496918E-1,-2.320396900E-2,6.818914413E-2,1.248275739E-1
4.457324605E0,9.456443787E-2,2.954602242E-3,7.558727264E-2,1.210974747E-1
4.465566605E0,1.135430336E-1,1.231062412E-2,8.772850037E-2,1.440134081E-1
4.473770874E0,8.932209015E-2,1.684284210E-2,7.844638824E-2,1.200664522E-1
4.481975143E0,8.920097351E-2,-9.653806686E-3,1.072931290E-1,1.398635949E-1
4.490186066E0,1.058349609E-1,1.186668873E-2,1.098408699E-1,1.529930520E-1
4.498390913E0,1.128191948E-1,4.301905632E-3,7.408666611E-2,1.350389248E-1
4.506630836E0,1.030488014E-1,8.717775345E-3,6.227016449E-2,1.207171424E-1
4.514836605E0,1.221365929E-1,8.392453194E-3,5.509281158E-2,1.342497615E-1
4.523041066E0,1.197619438E-1,8.281230927E-3,6.700944901E-2,1.374837017E-1
4.531249605E0,1.004595757E-1,-2.071428299E-2,8.149862289E-2,1.310085241E-1
4.539454566E0,8.824539185E-2,1.006984711E-2,1.200346947E-1,1.493217296E-1
4.547698259E0,9.042453766E-2,2.187013626E-2,1.011152267E-1,1.374015609E-1
4.555902835E0,7.346057892E-2,2.881455421E-2,1.204710007E-1,1.440138785E-1
4.564108105E0,4.918956757E-2,2.122282982E-2,1.183981895E-1,1.299544280E-1
4.572338028E0,7.507562637E-2,-7.666349411E-4,7.577037811E-2,1.066681190E-1
4.580543951E0,7.720470428E-2,-1.558458805E-2,7.599687576E-2,1.094484850E-1
4.588784835E0,8.897447586E-2,-3.702640533E-3,7.384157181E-2,1.156838132E-1
4.596988297E0,9.099197388E-2,-1.588833332E-2,6.709051132E-2,1.141626697E-1
4.605192335E0,9.057235718E-2,-6.444334984E-3,5.802106857E-2,1.077558617E-1
4.613402643E0,9.980964661E-2,-8.946418762E-3,9.434461594E-2,1.376332464E-1
4.621608143E0,1.066565514E-1,-1.872968674E-2,7.557153702E-2,1.320510444E-1
4.629849489E0,1.040468216E-1,-2.357971668E-2,8.541154861E-2,1.366633702E-1
4.638055258E0,9.657716751E-2,-1.198279858E-2,7.610797882E-2,1.235441669E-1
4.646261258E0,7.712507248E-2,-1.457583904E-2,6.207799911E-2,1.000720234E-1
4.654472566E0,8.636283875E-2,-1.720130444E-2,7.203388214E-2,1.137686467E-1
4.662677373E0,1.004996300E-1,-1.492655277E-2,6.272268295E-2,1.194031514E-1
4.670915297E0,1.003432274E-1,-5.422711372E-3,6.051206589E-2,1.173025115E-1
4.679118989E0,1.048374176E-1,-1.026654243E-2,8.960580826E-2,1.382949272E-1
4.687322796E0,1.212668419E-1,4.058957100E-3,8.523464203E-2,1.482803638E-1
4.695530066E0,1.185102463E-1,1.840806007E-2,6.893920898E-2,1.383334728E-1
4.703733027E0,1.490964890E-1,1.800632477E-2,8.629179001E-2,1.732058422E-1
4.711973066E0,9.840488434E-2,2.501797676E-2,6.283950806E-2,1.194078063E-1
4.720179796E0,1.005668640E-1,-1.585698128E-2,6.788444519E-2,1.223659916E-1
4.728385796E0,1.100916862E-1,-1.603722572E-2,5.353975296E-2,1.234660971E-1
4.736598796E0,9.324407578E-2,-2.827239037E-2,6.316566467E-2,1.161192788E-1
4.744802373E0,9.323644638E-2,-1.895558834E-2,5.353260040E-2,1.091699985E-1
4.753042796E0,8.854484558E-2,-4.298305511E-2,5.099248886E-2,1.108511012E-1
4.761246335E0,8.856678009E-2,-3.108024597E-2,7.249450684E-2,1.185981018E-1
4.769448758E0,9.099769592E-2,-2.880120277E-2,8.438825607E-2,1.274027775E-1
4.777657027E0,8.868598938E-2,-1.205050945E-2,9.146213531E-2,1.279677369E-1
4.785860719E0,1.175122261E-1,-2.147078514E-2,1.009550095E-1,1.564034265E-1
4.794099373E0,8.879709244E-2,1.837015152E-4,8.899116516E-2,1.257154917E-1
4.802304450E0,9.361553192E-2,-1.421141624E-2,8.655071259E-2,1.282842859E-1
4.810508565E0,7.925033569E-2,-7.177591324E-3,7.214784622E-2,1.074125004E-1
4.818737988E0,6.720447540E-2,-4.950642586E-3,6.741523743E-2,9.531927724E-2
4.826943834E0,6.717443466E-2,-2.879881859E-2,6.029367447E-2,9.474757942E-2
4.835187604E0,5.519676208E-2,-3.110742569E-2,7.708406448E-2,9.978129822E-2
4.843391757E0,8.873796463E-2,-4.062831402E-2,8.185768127E-2,1.273803998E-1
4.851598411E0,9.114027023E-2,-5.232048035E-2,1.034641266E-1,1.474747674E-1
4.859806604E0,8.154201508E-2,5.280256271E-3,1.083154678E-1,1.356805878E-1
4.868012911E0,9.355449677E-2,-6.639599800E-3,9.869861603E-2,1.361541221E-1
4.876255373E0,9.344100952E-2,6.601810455E-4,9.887409210E-2,1.360431703E-1
4.884463757E0,9.810209274E-2,5.400300026E-3,8.705663681E-2,1.312708721E-1
4.892672411E0,8.597803116E-2,5.382895470E-3,7.527875900E-2,1.144031860E-1
4.900887180E0,1.001334190E-1,-1.144742966E-2,8.271503448E-2,1.303822157E-1
4.909094949E0,1.023483276E-1,4.150867462E-4,8.770608902E-2,1.347876497E-1
4.917342334E0,9.976387024E-2,-9.137749672E-3,9.514093399E-2,1.381597828E-1
4.925549872E0,8.525037766E-2,2.915501595E-3,9.774589539E-2,1.297319818E-1
4.933757988E0,8.043098450E-2,2.461469173E-2,9.303712845E-2,1.254230186E-1
4.941964565E0,9.242153168E-2,5.794048309E-3,7.394123077E-2,1.185015448E-1
4.950170257E0,8.537769318E-2,8.475184441E-3,8.341121674E-2,1.196603958E-1
4.958407065E0,8.060216904E-2,-2.236652374E-2,6.910085678E-2,1.084983845E-1
4.966613488E0,7.091760635E-2,1.145732403E-2,9.325790405E-2,1.177183666E-1
4.974819718E0,1.139888763E-1,-1.229190826E-2,9.812688828E-2,1.509087179E-1
4.983025218E0,8.784151077E-2,-2.618551254E-2,9.081888199E-2,1.290344195E-1
4.991228834E0,9.506511688E-2,-1.392936707E-2,9.083843231E-2,1.322233886E-1
4.999464795E0,9.036493301E-2,6.488561630E-4,7.401800156E-2,1.168114151E-1
5.007670757E0,1.119422913E-1,-3.917336464E-3,8.600664139E-2,1.412216855E-1
5.015875218E0,8.802366257E-2,-8.491039276E-3,8.842420578E-2,1.250563996E-1
5.024083872E0,9.996843338E-2,3.751873970E-3,8.613395691E-2,1.320106919E-1
5.032289295E0,8.072376251E-2,-5.668401718E-4,8.876323700E-2,1.199814960E-1
5.040529487E0,9.248971939E-2,-7.550477982E-3,9.626054764E-2,1.337065853E-1
5.048734718E0,1.018543243E-1,-2.398407459E-2,6.309795380E-2,1.221920251E-1
5.056939987E0,1.184091568E-1,-1.648497581E-2,7.301902771E-2,1.400866205E-1
5.065179180E0,1.208453178E-1,-2.561938763E-2,7.307672501E-2,1.435275291E-1
5.073384064E0,1.256341934E-1,-2.525329590E-2,7.795619965E-2,1.499961619E-1
5.081625757E0,1.279745102E-1,-1.286351681E-2,8.531379700E-2,1.543417937E-1
5.089830680E0,1.111049652E-1,-7.785916328E-3,5.919456482E-2,1.261306081E-1
5.098035910E0,1.277103424E-1,-2.745032310E-3,5.945634842E-2,1.408989855E-1
5.106248026E0,9.162139893E-2,-7.483601570E-3,4.772472382E-2,1.035767073E-1
5.114455064E0,7.493019104E-2,7.289886475E-3,5.252838135E-2,9.179818528E-2
5.122697526E0,6.055593491E-2,2.892136574E-3,4.306268692E-2,7.436249533E-2
5.130903949E0,7.739782333E-2,-1.565515995E-2,6.226301193E-2,1.005593842E-1
5.139111718E0,1.039419174E-1,6.373643875E-3,8.605766296E-2,1.350942889E-1
5.147326295E0,1.233830452E-1,-1.246440411E-2,1.097068787E-1,1.655727527E-1
5.155534564E0,1.139407158E-1,-1.398324966E-4,1.168050766E-1,1.631745452E-1
5.163777910E0,1.092643738E-1,4.688739777E-3,1.070947647E-1,1.530685346E-1
5.171985256E0,9.261131287E-2,1.907348633E-4,1.094269753E-1,1.433567388E-1
5.180192102E0,9.489917755E-2,9.861469269E-3,1.000099182E-1,1.382211497E-1
5.188401948E0,7.566833496E-2,-1.174712181E-2,8.572912216E-2,1.149485719E-1
5.196610141E0,7.321166992E-2,2.418398857E-2,6.187248230E-2,9.885857566E-2
5.204851487E0,8.525133133E-2,-6.690740585E-3,5.466318130E-2,1.014919647E-1
5.213056794E0,8.056545258E-2,-4.037737846E-3,5.459594727E-2,9.740540505E-2
5.221263102E0,1.093993187E-1,-6.014823914E-3,6.654071808E-2,1.281875821E-1
5.229474948E0,1.142611504E-1,-1.275277138E-2,7.373857498E-2,1.365855816E-1
5.237679717E0,1.095004082E-1,-2.426552773E-2,8.818531036E-2,1.426737684E-1
5.245920794E0,1.096510887E-1,-1.184928417E-2,7.613325119E-2,1.340150690E-1
5.254125602E0,1.024718285E-1,-1.620888710E-2,8.102607727E-2,1.316374903E-1
5.262329756E0,9.302520752E-2,-1.092040539E-2,6.901311874E-2,1.163432639E-1
5.270540333E0,8.588790894E-2,-1.322793961E-2,4.982328415E-2,1.001702098E-1
5.278746910E0,9.561538696E-2,-2.741646767E-2,4.249000549E-2,1.081636052E-1
5.286989794E0,1.030268669E-1,-4.938840866E-4,6.628656387E-2,1.225099497E-1
5.295197371E0,9.113836288E-2,9.325504303E-3,7.342386246E-2,1.174062596E-1
5.303404063E0,1.056485176E-1,7.194876671E-3,7.569789886E-2,1.301673823E-1
5.311623794E0,9.865760803E-2,-6.858110428E-3,7.552957535E-2,1.244390375E-1
5.319828602E0,9.150838852E-2,-6.824254990E-3,8.267831802E-2,1.235154237E-1
5.328071563E0,1.060380936E-1,1.026427746E-2,8.254957199E-2,1.347733821E-1
5.336278140E0,9.174966812E-2,8.097529411E-3,8.250761032E-2,1.236570958E-1
5.344484602E0,9.182214737E-2,1.788175106E-2,6.570720673E-2,1.143175436E-1
5.352694602E0,1.038188934E-1,8.268117905E-3,8.003044128E-2,1.313453309E-1
5.360900409E0,1.015648842E-1,-8.422374725E-3,7.986640930E-2,1.294797491E-1
5.369141255E0,1.040701866E-1,-3.628969193E-3,8.451223373E-2,1.341122321E-1
5.377347448E0,1.090416908E-1,-1.314556599E-2,8.429193497E-2,1.384486423E-1
5.385552717E0,1.283588409E-1,-3.465163708E-2,7.451486588E-2,1.524112635E-1
5.393763294E0,1.117806435E-1,6.196737289E-3,6.474161148E-2,1.293243522E-1
5.401966178E0,8.319568634E-2,-1.304507256E-2,6.453132629E-2,1.060942421E-1
5.410205678E0,8.567762375E-2,-3.550767899E-3,5.482101440E-2,1.017772410E-1
5.418411217E0,1.025366783E-1,-1.077032089E-2,5.707693100E-2,1.178454338E-1
5.426615986E0,1.050801277E-1,1.556265354E-2,6.885433197E-2,1.265896854E-1
5.434827024E0,1.005558968E-1,1.376867294E-3,5.658626556E-2,1.153923290E-1
5.443033794E0,1.294574738E-1,8.746862411E-3,7.077836990E-2,1.478016331E-1
5.451276178E0,8.880233765E-2,-1.500296593E-2,6.837415695E-2,1.130750613E-1
5.459483024E0,1.153416634E-1,4.526376724E-3,7.299661636E-2,1.365748637E-1
5.467690524E0,1.202068329E-1,-4.916787148E-3,6.095981598E-2,1.348701473E-1
5.475903447E0,9.621047974E-2,9.433388710E-3,8.736324310E-2,1.302988161E-1
5.484109832E0,1.058688164E-1,1.907956600E-2,9.206438065E-2,1.415912649E-1
5.492350986E0,9.391307831E-2,1.911139488E-2,8.008193970E-2,1.248920684E-1
5.500557178E0,6.532573700E-2,4.823684692E-3,8.470392227E-2,1.070769550E-1
5.508764255E0,9.171867371E-2,1.669061184E-2,8.699893951E-2,1.275135566E-1
5.516973793E0,9.664535522E-2,1.903939247E-2,7.723283768E-2,1.251708208E-1
5.525180293E0,9.675931931E-2,1.896142960E-2,8.664131165E-2,1.312578324E-1
5.533419062E0,1.112303734E-1,9.556651115E-3,7.936668396E-2,1.369766260E-1
5.541624678E0,1.017093658E-1,1.213407516E-2,8.652448654E-2,1.340839948E-1
5.549830293E0,1.137371063E-1,3.374063969E-2,7.928228378E-2,1.426893151E-1
5.558053447E0,8.272695541E-2,7.307767868E-3,8.389854431E-2,1.180513378E-1
5.566255908E0,9.944200516E-2,1.674640179E-2,7.434511185E-2,1.252850750E-1
5.574496062E0,8.272695541E-2,-1.420104504E-2,7.193803787E-2,1.105463709E-1
5.582700639E0,8.033800125E-2,-2.605521679E-2,8.393239975E-2,1.190702167E-1
5.590901793E0,9.959077835E-2,-1.857757568E-3,7.189846039E-2,1.228460948E-1
5.599109139E0,1.044435501E-1,8.207201958E-3,7.433366776E-2,1.284574151E-1
5.607311370E0,1.237540245E-1,3.595113754E-3,6.938743591E-2,1.419246268E-1
5.615549062E0,1.118197441E-1,-1.294362545E-2,6.939649582E-2,1.322386715E-1
5.623752062E0,9.747314453E-2,-8.059024811E-3,5.742549896E-2,1.134180308E-1
5.631955524E0,9.022045135E-2,-8.124828339E-3,5.510377884E-2,1.060290956E-1
5.640166716E0,9.021711349E-2,-8.271932602E-4,5.992841721E-2,1.083107890E-1
5.648372716E0,9.972047806E-2,-1.269888878E-2,5.046987534E-2,1.124839715E-1
5.656612485E0,9.013652802E-2,-1.489233971E-2,6.968402863E-2,1.149009979E-1
5.664815793E0,8.298349380E-2,-1.221966743E-2,6.492805481E-2,1.060718286E-1
5.673017754E0,1.022162437E-1,-1.445841789E-2,5.289554596E-2,1.159963151E-1
5.681223293E0,1.143388748E-1,2.579689026E-3,7.192420959E-2,1.351041266E-1
5.689425293E0,1.263375282E-1,-6.813287735E-3,7.193517685E-2,1.455412711E-1
5.697663754E0,1.311893463E-1,-2.088546753E-2,6.953334808E-2,1.499391004E-1
5.705866716E0,1.383948326E-1,-8.694291115E-3,8.392572403E-2,1.620871603E-1
5.714070985E0,1.000385284E-1,2.519237995E-2,6.253385544E-2,1.206351784E-1
5.722281446E0,9.262561798E-2,2.532124519E-2,6.765222549E-2,1.174627353E-1
5.730487677E0,9.973287582E-2,2.799212933E-2,8.218479156E-2,1.322291412E-1
5.738728831E0,1.140441895E-1,1.625359058E-2,6.316041946E-2,1.313753970E-1
5.746934062E0,1.045684814E-1,4.521369934E-3,6.788063049E-2,1.247509122E-1
5.755139292E0,1.190209389E-1,1.906490326E-2,6.781244278E-2,1.383039472E-1
5.763351369E0,1.023359299E-1,4.663586617E-3,7.249689102E-2,1.254997641E-1
5.771556677E0,9.529829025E-2,-1.656913757E-2,1.059074402E-1,1.434318177E-1
5.779797369E0,1.216583252E-1,2.767205238E-3,9.874200821E-2,1.567111665E-1
5.788003600E0,1.097030640E-1,1.956892014E-2,8.915424347E-2,1.427101398E-1
5.796209831E0,1.167845726E-1,9.978890419E-3,9.407043457E-2,1.502912549E-1
5.804435061E0,8.565139771E-2,2.201855183E-2,6.057977676E-2,1.071955592E-1
5.812642215E0,1.000976562E-1,-1.647114754E-3,5.096912384E-2,1.123392423E-1
5.820884408E0,8.571672440E-2,-6.339430809E-3,4.143667221E-2,9.541772911E-2
5.829092331E0,1.025528908E-1,-1.325249672E-3,6.054830551E-2,1.191005835E-1
5.837298523E0,1.050515175E-1,-5.756020546E-3,5.811071396E-2,1.201907158E-1
5.845507984E0,1.028251648E-1,-2.443563938E-2,7.716941833E-2,1.308634178E-1
5.853713023E0,1.292076111E-1,-1.686692238E-2,9.157323837E-2,1.592631716E-1
5.861930330E0,8.862495422E-2,-2.014160156E-3,9.154510498E-2,1.274321215E-1
5.870133523E0,1.007552147E-1,-1.360201836E-2,6.510019302E-2,1.207255703E-1
5.878338369E0,9.603023529E-2,9.653568268E-4,5.549430847E-2,1.109159875E-1
5.886544292E0,8.891105652E-2,3.223419189E-2,6.502628326E-2,1.147721073E-1
5.894748561E0,1.010270119E-1,-9.990930557E-4,6.970119476E-2,1.227424615E-1
5.902988561E0,9.876680374E-2,-5.707740784E-4,7.442712784E-2,1.236713575E-1
5.911193484E0,1.036634445E-1,9.251236916E-3,6.956148148E-2,1.251818470E-1
5.919398446E0,1.325125694E-1,4.744768143E-3,7.426881790E-2,1.519801013E-1
5.927609369E0,9.675884247E-2,1.217067242E-2,8.848905563E-2,1.316841366E-1
5.935816176E0,1.183896065E-1,5.057334900E-3,7.882404327E-2,1.423197293E-1
5.944058946E0,1.231822968E-1,7.648706436E-3,6.929254532E-2,1.415409403E-1
5.952266753E0,1.064782143E-1,2.998113632E-3,6.925582886E-2,1.270549827E-1
5.960474484E0,1.136350632E-1,-4.114985466E-3,5.494022369E-2,1.262865348E-1
5.968687292E0,9.215879440E-2,7.876038551E-3,5.485391617E-2,1.075370982E-1
5.976892984E0,1.043319702E-1,-1.387715340E-3,4.749059677E-2,1.146404926E-1
5.985135792E0,1.260652542E-1,-2.984368801E-2,6.168794632E-2,1.434869219E-1
5.993340715E0,9.268903732E-2,-2.245008945E-2,7.113409042E-2,1.189761446E-1
6.001545599E0,1.264061928E-1,-1.987111568E-2,7.810735703E-2,1.499137953E-1
6.009756330E0,1.075253487E-1,-5.339503288E-3,6.582880020E-2,1.261889133E-1
6.017964676E0,1.246137619E-1,-2.811193466E-3,7.980442047E-2,1.480041823E-1
6.026210368E0,1.152424812E-1,-5.110383034E-3,7.716941833E-2,1.387878403E-1
6.034415945E0,1.033940315E-1,1.780390739E-3,5.538940430E-2,1.173093417E-1
6.042621330E0,1.081953049E-1,1.354634762E-2,6.489706039E-2,1.268911186E-1
6.050845714E0,9.628820419E-2,6.380438805E-3,6.960725784E-2,1.189844469E-1
6.059052022E0,9.394025803E-2,2.060544491E-2,5.514621735E-2,1.108623549E-1
6.067288368E0,1.179552078E-1,1.091158390E-2,8.135843277E-2,1.437069529E-1
6.075496330E0,1.108069420E-1,3.471803665E-2,6.931018829E-2,1.352309974E-1
6.083703945E0,1.012501717E-1,5.928874016E-3,7.166242599E-2,1.241863604E-1
6.091913137E0,1.085104942E-1,5.808115005E-3,7.631874084E-2,1.327885980E-1
6.100119714E0,8.692216873E-2,4.369544983E-2,9.302425385E-2,1.346041142E-1
6.108357676E0,9.650135040E-2,2.632224560E-2,8.568191528E-2,1.317071063E-1
6.116563791E0,1.371932030E-1,-1.236724854E-2,1.071434021E-1,1.745125565E-1
6.124770983E0,1.227040291E-1,-1.762819290E-2,8.802890778E-2,1.520398650E-1
6.132985137E0,7.228899002E-2,-1.329171658E-2,9.048318863E-2,1.165743335E-1
6.141192329E0,1.128425598E-1,7.843732834E-3,9.057044983E-2,1.449067764E-1
6.149438214E0,1.150918007E-1,3.369736671E-2,8.584403992E-2,1.474816405E-1
6.157646099E0,1.126337051E-1,3.577101231E-2,7.626724243E-2,1.406506634E-1
6.165854175E0,1.148071289E-1,4.478669167E-2,9.795761108E-2,1.574236900E-1
6.174064175E0,1.431498528E-1,3.702902794E-2,6.718492508E-2,1.624094930E-1
6.182269906E0,1.066889763E-1,1.268827915E-2,4.384899139E-2,1.160442335E-1
6.190510598E0,1.255049706E-1,-1.154386997E-2,2.266263962E-2,1.280560573E-1
6.198717829E0,1.132202148E-1,-2.828478813E-2,1.828336716E-2,1.181233584E-1
6.206925291E0,1.249756813E-1,-2.369427681E-2,3.048229218E-2,1.308033249E-1
6.215137983E0,1.224427223E-1,-1.181066036E-2,2.824449539E-2,1.262119783E-1
6.223344368E0,1.225028038E-1,-1.177132130E-2,4.733085632E-2,1.318548858E-1
6.231586175E0,1.179370880E-1,-7.030963898E-3,4.703044891E-2,1.271631012E-1
6.239793175E0,1.422047615E-1,-2.359509468E-3,5.615854263E-2,1.529102462E-1
6.247999598E0,1.210885048E-1,-1.907229424E-2,8.434534073E-2,1.487962194E-1
6.256212560E0,1.070461273E-1,-7.177472115E-3,7.672643661E-2,1.318989596E-1
6.264419444E0,1.025209427E-1,-9.540796280E-3,9.075975418E-2,1.372548850E-1
6.272662060E0,9.058189392E-2,-1.687097549E-2,7.392215729E-2,1.181278742E-1
6.280869329E0,8.577108383E-2,-2.192068100E-2,6.909513474E-2,1.123001902E-1
6.289076329E0,8.825111389E-2,-1.725316048E-2,7.374238968E-2,1.162921781E-1
6.297307713E0,8.819389343E-2,-5.163431168E-3,6.905746460E-2,1.121327663E-1
6.305513752E0,9.305810928E-2,-7.366776466E-3,9.534358978E-2,1.334334336E-1
6.313756175E0,1.146435738E-1,-2.552509308E-3,8.093738556E-2,1.403585576E-1
6.321963483E0,1.192078590E-1,1.171469688E-2,7.162475586E-2,1.395630805E-1
6.330171329E0,1.118273735E-1,2.119183540E-3,7.426929474E-2,1.342601227E-1
6.338381829E0,9.971094131E-2,1.628804207E-2,8.398389816E-2,1.313806199E-1
6.346589059E0,8.507633209E-2,8.782029152E-3,6.030607224E-2,1.046514628E-1
6.354832252E0,8.485317230E-2,2.551317215E-2,5.579853058E-2,1.047113118E-1
6.363039521E0,1.037807465E-1,3.731966019E-3,4.405879974E-2,1.128075740E-1
6.371246598E0,1.037139893E-1,-3.604531288E-3,5.128812790E-2,1.157586121E-1
6.379459444E0,1.085166931E-1,-8.342742920E-3,7.043647766E-2,1.296409327E-1
6.387665175E0,1.277270317E-1,3.569245338E-3,7.513666153E-2,1.482310765E-1
6.395907367E0,1.014771461E-1,1.311898232E-3,9.182024002E-2,1.368586451E-1
6.404113598E0,1.182150841E-1,-1.311004162E-2,1.085929871E-1,1.610562515E-1
6.412319251E0,1.110191345E-1,-1.216888428E-3,9.901332855E-2,1.487627920E-1
6.420531367E0,1.037788391E-1,2.275300026E-2,9.191131592E-2,1.404828689E-1
6.428736136E0,7.716655731E-2,1.298797131E-2,8.743190765E-2,1.173358574E-1
6.436975674E0,9.131765366E-2,2.720761299E-2,5.415153503E-2,1.095972482E-1
6.445181059E0,7.919979095E-2,1.285624504E-2,5.913257599E-2,9.967222014E-2
6.453386944E0,8.133506775E-2,-2.314567566E-2,5.944442749E-2,1.033670910E-1
6.461598944E0,1.027002335E-1,-6.350517273E-3,5.968904495E-2,1.189556603E-1
6.469804559E0,1.001029015E-1,-8.631587029E-3,6.716203690E-2,1.208546001E-1
6.478047559E0,1.142945290E-1,1.305317879E-2,6.742048264E-2,1.333384652E-1
6.486252136E0,1.044764519E-1,-1.290297508E-2,8.458852768E-2,1.350445659E-1
6.494457174E0,1.091146469E-1,4.168391228E-3,8.246850967E-2,1.368372637E-1
6.502665905E0,1.161274910E-1,-5.403995514E-3,7.311201096E-2,1.373323104E-1
6.510870866E0,1.111001968E-1,-1.028168201E-2,6.860733032E-2,1.309806570E-1
6.519113251E0,9.168720245E-2,-2.004110813E-2,5.213594437E-2,1.073608206E-1
6.527318213E0,1.083645821E-1,-1.766538620E-2,6.899785995E-2,1.296751834E-1
6.535523212E0,1.035938263E-1,-1.536238194E-2,5.219316483E-2,1.170120083E-1
6.543747212E0,1.155128479E-1,-2.748227119E-2,5.461597443E-2,1.306958221E-1
6.551951443E0,1.442389488E-1,-1.775681973E-2,6.184148788E-2,1.579384330E-1
6.560193982E0,9.388542175E-2,1.349389553E-2,5.718231201E-2,1.107536656E-1
6.568401251E0,1.223978996E-1,2.064442635E-2,6.224393845E-2,1.388587269E-1
6.576610405E0,9.824657440E-2,3.262996674E-2,6.012153625E-2,1.197150919E-1
6.584824058E0,1.101870537E-1,1.091217995E-2,4.814624786E-2,1.207407291E-1
6.593030328E0,1.149139404E-1,3.588795662E-3,5.537271500E-2,1.276096812E-1
6.601270866E0,1.076683998E-1,-3.228902817E-2,6.264591217E-2,1.286840160E-1
6.609476405E0,1.196751595E-1,-3.464245796E-2,5.782270432E-2,1.373524984E-1
6.617681558E0,1.222076416E-1,-3.211450577E-2,6.007194519E-2,1.399095699E-1
6.625893251E0,1.271743774E-1,-4.880702496E-2,7.422351837E-2,1.551276205E-1
6.634099058E0,1.177320480E-1,-3.449952602E-2,6.685400009E-2,1.397158179E-1
6.642340635E0,1.083436012E-1,-2.250385284E-2,6.901073456E-2,1.304118124E-1
6.650548827E0,8.939504623E-2,-1.520586014E-2,7.835292816E-2,1.198410356E-1
6.658755635E0,8.226346970E-2,1.352620125E-2,7.110404968E-2,1.095719966E-1
6.666964558E0,8.004617691E-2,-3.296494484E-3,5.170774460E-2,9.535170772E-2
6.675171481E0,1.017427444E-1,-1.537752151E-2,5.627536774E-2,1.172815895E-1
6.683413981E0,7.084894180E-2,6.250023842E-3,6.557464600E-2,9.674021682E-2
6.691619866E0,7.822513580E-2,-2.486693859E-2,7.969236374E-2,1.144045862E-1
6.699826212E0,9.514665604E-2,-5.735158920E-3,9.144830704E-2,1.320930394E-1
6.708037212E0,1.167387962E-1,-2.003264427E-2,8.662033081E-2,1.467390033E-1
6.716241904E0,1.193785667E-1,-1.030421257E-2,1.054973602E-1,1.596468353E-1
6.724482866E0,1.194372177E-1,-7.138252258E-4,8.387660980E-2,1.459487725E-1
6.732688635E0,1.074714661E-1,-1.272702217E-2,8.625125885E-2,1.383884849E-1
6.740894366E0,8.586931229E-2,1.845657825E-2,6.479024887E-2,1.091419279E-1
6.749104481E0,1.001563072E-1,4.208564758E-3,8.168077469E-2,1.293087269E-1
6.757308096E0,8.095502853E-2,-6.958246231E-4,5.777072906E-2,9.945681452E-2
6.765549289E0,9.529352188E-2,-1.748216152E-2,5.779790878E-2,1.128143588E-1
6.773754673E0,9.057664871E-2,-5.434513092E-3,6.730222702E-2,1.129745679E-1
6.781959827E0,1.072497368E-1,-1.027119160E-2,7.937049866E-2,1.338195781E-1
6.790189788E0,9.047842026E-2,-1.021707058E-2,7.461309433E-2,1.177193566E-1
6.798394250E0,1.168045998E-1,-7.587909698E-3,8.186721802E-2,1.428395333E-1
6.806634250E0,1.000742912E-1,-2.199411392E-2,5.787706375E-2,1.176790522E-1
6.814838404E0,1.143612862E-1,-1.741480827E-2,5.553102493E-2,1.283178633E-1
6.823044634E0,1.119928360E-1,-8.028030396E-3,5.784416199E-2,1.263043612E-1
6.831253904E0,9.284782410E-2,-5.779862404E-3,6.018877029E-2,1.108007821E-1
6.839459404E0,1.000542641E-1,-1.311993599E-2,6.490755081E-2,1.199832431E-1
6.847702404E0,9.777498245E-2,-1.321232319E-2,6.473588943E-2,1.180052883E-1
6.855906942E0,9.554958344E-2,5.865573883E-3,5.731582642E-2,1.115761256E-1
6.864110788E0,9.570503235E-2,-1.343011856E-2,4.750299454E-2,1.076863770E-1
6.872322288E0,8.863115311E-2,-3.267216682E-2,4.494667053E-2,1.046095358E-1
6.880529211E0,8.872938156E-2,-4.456019402E-2,7.117748260E-2,1.221668862E-1
6.888772903E0,1.030893326E-1,-3.241622448E-2,6.883192062E-2,1.281251552E-1
6.896978903E0,1.078252792E-1,-2.505064011E-2,7.134199142E-2,1.316947423E-1
6.905186480E0,1.292676926E-1,-2.976024151E-2,5.713224411E-2,1.444295733E-1
6.913400942E0,1.149406433E-1,-3.213036060E-2,5.230045319E-2,1.303036798E-1
6.921608326E0,1.054992676E-1,-3.210496902E-2,5.452537537E-2,1.230196775E-1
6.929850596E0,1.224765778E-1,-2.025890350E-2,5.900144577E-2,1.374485572E-1
6.938057249E0,1.201925278E-1,-3.712856770E-2,7.080411911E-2,1.443537237E-1
6.946262980E0,1.035890579E-1,-2.277326584E-2,7.059907913E-2,1.274109278E-1
6.954475442E0,1.250472069E-1,9.593963623E-4,6.108474731E-2,1.391728089E-1
6.962681595E0,1.368613243E-1,1.743495464E-2,6.121444702E-2,1.509377629E-1
6.970925442E0,8.422088623E-2,1.007688046E-2,6.352376938E-2,1.059715550E-1
6.979133980E0,7.940959930E-2,2.669894695E-2,6.591176987E-2,1.065977469E-1
6.987342018E0,7.705068588E-2,3.847193718E-2,5.863332748E-2,1.041862046E-1
6.995553172E0,7.954120636E-2,9.770274162E-3,7.048749924E-2,1.067274534E-1
7.003759711E0,8.193969727E-2,-2.119779587E-3,7.529020309E-2,1.112978982E-1
7.012001749E0,7.964229584E-2,2.199923992E-2,1.087307930E-1,1.365622466E-1
7.020207480E0,1.037216187E-1,2.449631691E-2,1.157622337E-1,1.573503685E-1
7.028412749E0,1.275482178E-1,3.179883957E-2,1.111526489E-1,1.721471040E-1
7.036634672E0,9.863710403E-2,2.451598644E-2,1.041779518E-1,1.455450361E-1
7.044840134E0,9.836673737E-2,2.687501907E-2,1.093053818E-1,1.494856119E-1
7.053081326E0,8.138132095E-2,9.975433350E-3,8.322620392E-2,1.168290618E-1
7.061285787E0,7.390689850E-2,-6.685972214E-3,6.926059723E-2,1.015084341E-1
7.069491595E0,6.891059875E-2,-6.643891335E-3,6.235742569E-2,9.317328185E-2
7.077703634E0,6.645345688E-2,-3.279054165E-2,5.769920349E-2,9.391740859E-2
7.085910941E0,8.318185806E-2,-1.093971729E-2,6.260633469E-2,1.046826254E-1
7.094153172E0,9.510231018E-2,-2.017104626E-2,4.599761963E-2,1.075504603E-1
7.102359556E0,1.165699959E-1,-5.598664284E-3,5.573034286E-2,1.293281876E-1
7.110564980E0,1.331839561E-1,-1.960265636E-2,7.037496567E-2,1.519041346E-1
7.118796672E0,1.043438911E-1,-1.685416698E-2,5.624198914E-2,1.197283254E-1
7.127003633E0,1.256923676E-1,-1.889312267E-2,5.658912659E-2,1.391324929E-1
7.135246479E0,1.111063957E-1,-2.337419987E-2,6.653022766E-2,1.315950439E-1
7.143453787E0,1.205415726E-1,-1.836562157E-2,4.761600494E-2,1.309001555E-1
7.151660672E0,1.179471016E-1,-2.306997776E-2,3.831863403E-2,1.261430155E-1
7.159872672E0,1.057934761E-1,-3.008246422E-2,4.817581177E-2,1.200754891E-1
7.168079979E0,1.128330231E-1,-5.161297321E-2,5.794000626E-2,1.369387981E-1
7.176322864E0,1.175317764E-1,-2.048730850E-2,4.847908020E-2,1.287775970E-1
7.184531941E0,1.030025482E-1,-2.523303032E-2,6.785488129E-2,1.258988311E-1
7.192740210E0,1.148099899E-1,-3.473949432E-2,6.569004059E-2,1.367601831E-1
7.200953248E0,8.830833435E-2,-2.512860298E-2,5.154657364E-2,1.052941492E-1
7.209159979E0,1.001524925E-1,-2.500176430E-2,5.892562866E-2,1.188605893E-1
7.217403556E0,1.169309616E-1,-6.079280376E-2,4.456758499E-2,1.391218330E-1
7.225612402E0,1.170868874E-1,-5.109786987E-2,6.833887100E-2,1.448810988E-1
7.233820748E0,1.122875214E-1,-5.566954613E-2,6.362056732E-2,1.405530590E-1
7.242037556E0,1.098761559E-1,-4.609835148E-2,5.645608902E-2,1.318526360E-1
7.250243979E0,1.195092201E-1,-5.570602417E-2,6.834697723E-2,1.485157369E-1
7.258480902E0,1.434760094E-1,-5.082249641E-2,5.636978149E-2,1.623140280E-1
7.266688440E0,1.172165871E-1,-4.120826721E-2,7.543230057E-2,1.453543310E-1
7.274897517E0,1.316456795E-1,-4.606366158E-2,5.378532410E-2,1.494834671E-1
7.283116133E0,1.267905235E-1,-2.706634998E-2,5.862092972E-2,1.422843546E-1
7.291324325E0,1.053462029E-1,-3.895390034E-2,3.456544876E-2,1.175159523E-1
7.299563633E0,1.198678017E-1,-3.667247295E-2,4.391145706E-2,1.328208425E-1
7.307771825E0,1.009044647E-1,-7.728099823E-3,4.132843018E-2,1.093136481E-1
7.315981133E0,1.106910706E-1,-1.950085163E-2,4.110717773E-2,1.196770503E-1
7.324202671E0,1.011843681E-1,-2.672231197E-2,4.340076447E-2,1.132960046E-1
7.332411748E0,9.405326843E-2,-1.712989807E-2,6.728076935E-2,1.169023209E-1
7.340656748E0,1.276736259E-1,-1.733720303E-2,5.512619019E-2,1.401428921E-1
7.348865056E0,1.326298714E-1,-5.508542061E-3,5.008411407E-2,1.418782763E-1
7.357070325E0,9.920501709E-2,-1.526331902E-2,7.625484467E-2,1.260531858E-1
7.365281209E0,1.065206528E-1,1.311671734E-2,7.120513916E-2,1.287977856E-1
7.373485825E0,9.953022003E-2,8.382797241E-4,6.608819962E-2,1.194764309E-1
7.381728325E0,1.165046692E-1,-1.621389389E-2,7.531356812E-2,1.396723374E-1
7.389935671E0,9.257650375E-2,2.942085266E-4,7.523250580E-2,1.192913473E-1
7.398142825E0,1.021599770E-1,9.475827217E-3,7.751703262E-2,1.285898228E-1
7.406354401E0,1.022872925E-1,2.152204514E-3,9.407758713E-2,1.389889009E-1
7.414561132E0,1.119422913E-1,-7.461667061E-3,7.720708847E-2,1.361898952E-1
7.422802671E0,8.809471130E-2,6.662249565E-3,7.702255249E-2,1.172072409E-1
7.431008017E0,1.119422913E-1,-1.756083965E-2,6.510257721E-2,1.306820769E-1
7.439215555E0,1.071901321E-1,-8.126854897E-3,6.023120880E-2,1.232216244E-1
7.447429940E0,9.776830673E-2,-1.051282883E-2,5.524444580E-2,1.127878990E-1
7.455637632E0,9.545373917E-2,-1.043224335E-2,7.192182541E-2,1.199708173E-1
7.463881363E0,1.146311760E-1,-1.056456566E-2,8.383083344E-2,1.424061979E-1
7.472089747E0,1.098828316E-1,-2.736866474E-2,7.658386230E-2,1.367054075E-1
7.480297363E0,1.195182800E-1,-2.033340931E-2,8.604621887E-2,1.486674765E-1
7.488509901E0,9.079265594E-2,-1.084136963E-2,7.165336609E-2,1.161681821E-1
7.496718747E0,9.081554413E-2,-1.566326618E-2,7.640457153E-2,1.197098973E-1
7.504965747E0,6.679153442E-2,-2.538049221E-2,5.013799667E-2,8.728743991E-2
7.513175516E0,8.831739426E-2,-2.552139759E-2,5.013084412E-2,1.047110567E-1
7.521384170E0,1.073446274E-1,-3.274250031E-2,4.310131073E-2,1.202192303E-1
7.529603670E0,1.240391731E-1,-1.847410202E-2,4.315996170E-2,1.326265102E-1
7.537811170E0,1.072874069E-1,-4.495882988E-2,5.508279800E-2,1.287089690E-1
7.546053593E0,1.528449059E-1,-2.596104145E-2,5.495548248E-2,1.644860054E-1
7.554260439E0,1.408419609E-1,-3.810763359E-2,6.453132629E-2,1.595397811E-1
7.562468516E0,1.263966560E-1,-4.309976101E-2,6.697654724E-2,1.493973291E-1
7.570683824E0,1.142330170E-1,-2.160310745E-2,5.523967743E-2,1.287140178E-1
7.578892824E0,9.485769272E-2,-1.948356628E-2,4.588031769E-2,1.071568699E-1
7.587137632E0,8.271884918E-2,-5.290150642E-3,4.365777969E-2,9.368241794E-2
7.595347016E0,1.017255783E-1,6.550669670E-3,3.663206100E-2,1.083185693E-1
7.603557824E0,1.352005005E-1,1.801729202E-3,4.866886139E-2,1.437048351E-1
7.611773978E0,1.256208420E-1,-3.116726875E-3,4.624509811E-2,1.338989135E-1
7.619982401E0,1.378483772E-1,-5.535960197E-3,7.942581177E-2,1.591894517E-1
7.628227439E0,1.355643272E-1,-1.523649693E-2,8.164834976E-2,1.589851901E-1
7.636436401E0,1.044440269E-1,1.559972763E-3,8.643960953E-2,1.355831641E-1
7.644646093E0,1.164770126E-1,-2.474844456E-2,9.115505219E-2,1.499620736E-1
7.652858747E0,9.238767624E-2,-2.248620987E-2,8.413076401E-2,1.269610090E-1
7.661066977E0,1.090755463E-1,-2.499198914E-2,7.461595535E-2,1.344976398E-1
7.669309285E0,1.064648628E-1,-1.079559326E-3,6.531190872E-2,1.249062764E-1
7.677517247E0,8.007335663E-2,-1.555585861E-2,7.014369965E-2,1.075819027E-1
7.685725247E0,9.697294235E-2,-3.212249279E-2,4.606962204E-2,1.120625547E-1
7.693938862E0,1.281490326E-1,6.348848343E-3,4.604434967E-2,1.363178806E-1
7.702145977E0,1.091246605E-1,-2.689421177E-2,6.270742416E-2,1.287000824E-1
7.710388362E0,1.044478416E-1,-2.899587154E-2,6.503152847E-2,1.264089075E-1
7.718594977E0,1.043739319E-1,-3.115797043E-2,6.039810181E-2,1.245498594E-1
7.726803746E0,9.469032288E-2,-3.355491161E-2,5.335140228E-2,1.137477976E-1
7.735019439E0,8.975982666E-2,-1.915097237E-2,6.551551819E-2,1.127646636E-1
7.743228362E0,1.159734726E-1,-3.334677219E-2,5.135202408E-2,1.311445155E-1
7.751471900E0,1.015267372E-1,-4.997110367E-2,6.585550308E-2,1.309264559E-1
7.759681092E0,9.902238846E-2,-4.273843765E-2,4.925155640E-2,1.185652701E-1
7.767889708E0,1.060910225E-1,-3.794944286E-2,6.136989594E-2,1.283032712E-1
7.776110708E0,9.643745422E-2,-2.357065678E-2,7.823276520E-2,1.263966929E-1
7.784319015E0,1.012158394E-1,-1.165950298E-2,7.823133469E-2,1.284551746E-1
7.792562862E0,1.083235741E-1,3.197193146E-4,7.593441010E-2,1.322880703E-1
7.800769900E0,7.935428619E-2,2.440094948E-3,7.138538361E-2,1.067657707E-1
7.808976477E0,7.913780212E-2,-9.777545929E-3,8.357238770E-2,1.155107619E-1
7.817185054E0,8.121824265E-2,9.059190750E-3,6.234979630E-2,1.027908993E-1
7.825390784E0,9.522151947E-2,1.453638077E-3,5.792093277E-2,1.114633809E-1
7.833636554E0,1.093401909E-1,-2.512407303E-2,5.817604065E-2,1.263762165E-1
7.841845631E0,1.139416695E-1,-1.582002640E-2,4.637718201E-2,1.240315294E-1
7.850053246E0,1.161394119E-1,-3.275954723E-2,5.855751038E-2,1.341287924E-1
7.858267631E0,1.112866402E-1,-4.958868027E-2,7.538080215E-2,1.432690435E-1
7.866473669E0,1.231551170E-1,-7.593607903E-2,6.832838058E-2,1.600069953E-1
7.874717015E0,1.397590637E-1,-6.652104855E-2,6.130552292E-2,1.664812690E-1
7.882924400E0,1.134014130E-1,-8.566904068E-2,5.894088745E-2,1.538606292E-1
7.891131900E0,1.156220436E-1,-8.114755154E-2,4.712533951E-2,1.489099718E-1
7.899345938E0,1.108355522E-1,-6.934225559E-2,5.665779114E-2,1.424885025E-1
7.907554553E0,1.227836609E-1,-7.412207127E-2,4.950714111E-2,1.517262860E-1
7.915801284E0,1.228747368E-1,-4.305112362E-2,5.416393280E-2,1.410153602E-1
7.924010630E0,1.228146553E-1,-5.476510525E-2,4.951810837E-2,1.432993348E-1
7.932219823E0,9.181118011E-2,-4.484891891E-2,6.381320953E-2,1.204692659E-1
7.940435669E0,1.158542633E-1,-3.280341625E-2,8.764410019E-2,1.489287170E-1
7.948645630E0,9.908056259E-2,-4.967677593E-2,5.650854111E-2,1.244104303E-1
7.956890361E0,1.135907173E-1,-4.245114326E-2,7.309150696E-2,1.415885554E-1
7.965097861E0,1.040515900E-1,-1.398694515E-2,6.818675995E-2,1.251870690E-1
7.973305284E0,9.439849854E-2,-1.887476444E-2,7.065439224E-2,1.194126308E-1
7.981517476E0,8.723592758E-2,-2.850282192E-2,6.582736969E-2,1.129414030E-1
7.989726130E0,8.004045486E-2,-3.104472160E-2,7.059383392E-2,1.111473731E-1
7.997971207E0,1.086902618E-1,-1.697003841E-2,6.344318390E-2,1.269905225E-1
8.006180707E0,8.472347260E-2,-1.253294945E-2,6.577968597E-2,1.079912437E-1
8.014390053E0,1.014642715E-1,-7.305145264E-4,7.294368744E-2,1.249652495E-1
8.022618553E0,1.181502342E-1,8.552789688E-3,7.296323776E-2,1.391267843E-1
8.030827745E0,1.181235313E-1,-1.335537434E-2,5.854082108E-2,1.325087258E-1
8.039071207E0,1.013269424E-1,-1.617932320E-2,5.608606339E-2,1.169383011E-1
8.047280207E0,1.204643250E-1,-1.884233952E-2,7.040452957E-2,1.407958988E-1
8.055489937E0,1.157741547E-1,2.490520477E-3,7.261753082E-2,1.366863686E-1
8.063703437E0,9.664821625E-2,-2.158880234E-2,7.254600525E-2,1.227594272E-1
8.071912553E0,7.520914078E-2,2.285838127E-3,8.435726166E-2,1.130388761E-1
8.080155668E0,9.922027588E-2,-1.940727234E-2,8.662843704E-2,1.331382419E-1
8.088363514E0,9.204292297E-2,-1.482391357E-2,8.177900314E-2,1.240139244E-1
8.096572130E0,1.064252853E-1,-4.605555534E-2,7.694387436E-2,1.391682986E-1
8.104786283E0,1.064620018E-1,-2.950191498E-2,7.923746109E-2,1.359525507E-1
8.112997322E0,1.111240387E-1,-1.795876026E-2,6.492757797E-2,1.299486800E-1
8.121241514E0,9.913110733E-2,-3.964686394E-2,7.449722290E-2,1.301871210E-1
8.129450822E0,9.428119659E-2,-5.648851395E-2,4.821968079E-2,1.200209726E-1
8.137660822E0,8.691072464E-2,-3.268301487E-2,3.884840012E-2,1.006521322E-1
8.145873014E0,1.035304070E-1,-5.432701111E-2,3.900718689E-2,1.232539246E-1
8.154082052E0,9.160232544E-2,-5.681383610E-2,5.568742752E-2,1.213255438E-1
8.162326437E0,1.157307625E-1,-6.665146351E-2,6.974601746E-2,1.506669636E-1
8.170535206E0,1.275978088E-1,-3.306019306E-2,6.510877609E-2,1.470147268E-1
8.178743360E0,1.154642105E-1,-3.789663315E-2,6.770133972E-2,1.391100647E-1
8.186958475E0,1.008405685E-1,-3.329122066E-2,6.319952011E-2,1.235771216E-1
8.195166822E0,1.054391861E-1,-9.428262711E-3,5.384826660E-2,1.187684719E-1
8.203408668E0,1.315851212E-1,-1.896107197E-2,4.213333130E-2,1.394610482E-1
8.211616860E0,1.123318672E-1,-7.079958916E-3,3.745031357E-2,1.186216683E-1
8.219825514E0,1.050438881E-1,-2.168536186E-3,5.198240280E-2,1.172224005E-1
8.228039706E0,1.145439148E-1,-2.233743668E-3,7.361459732E-2,1.361778505E-1
8.236248129E0,1.074333191E-1,-2.143871784E-2,9.266138077E-2,1.434840345E-1
8.244491091E0,1.026177406E-1,-3.094935417E-2,9.271430969E-2,1.417187582E-1
8.252699591E0,9.545707703E-2,-2.851355076E-2,8.790826797E-2,1.328643658E-1
8.260908475E0,1.216778755E-1,-1.884818077E-2,7.610940933E-2,1.447528981E-1
8.269132937E0,1.143593788E-1,-1.883745193E-2,4.755544662E-2,1.252774426E-1
8.277342129E0,9.733390808E-2,-1.663708687E-2,2.869462967E-2,1.028302684E-1
8.285588129E0,1.115355492E-1,-3.340864182E-2,2.172231674E-2,1.184405974E-1
8.293795360E0,1.162242889E-1,-3.799104691E-2,2.429866791E-2,1.246668771E-1
8.302002475E0,1.019396782E-1,-4.009151459E-2,3.384542465E-2,1.146496415E-1
8.310214283E0,1.139822006E-1,-5.897116661E-2,4.100418091E-2,1.347252144E-1
8.318421475E0,9.499406815E-2,-6.358420849E-2,6.717061996E-2,1.325847530E-1
8.326664436E0,1.094818115E-1,-6.346619129E-2,6.943655014E-2,1.443456234E-1
8.334872129E0,8.096885681E-2,-3.932464123E-2,7.638883591E-2,1.180577716E-1
8.343078629E0,7.634735107E-2,-2.736413479E-2,6.659460068E-2,1.049407201E-1
8.351291782E0,8.613443375E-2,-1.283645630E-2,7.354545593E-2,1.139861806E-1
8.359500821E0,8.382368088E-2,8.853077888E-3,6.389760971E-2,1.057718819E-1
8.367743667E0,6.712293625E-2,-3.172039986E-3,5.423116684E-2,8.635143233E-2
8.375950321E0,8.871316910E-2,-1.267755032E-2,7.334899902E-2,1.158051049E-1
8.384156898E0,1.102905273E-1,-1.988995075E-2,9.485149384E-2,1.468210354E-1
8.392368205E0,1.176834106E-1,-3.398096561E-2,9.225511551E-2,1.533463319E-1
8.400575975E0,1.321830750E-1,-6.024146080E-2,9.209966660E-2,1.719992660E-1
8.408818667E0,1.202597618E-1,-3.161978722E-2,9.440469742E-2,1.561232467E-1
8.417025898E0,1.177730560E-1,-3.405952454E-2,8.254146576E-2,1.477959320E-1
8.425233205E0,1.009488106E-1,-3.424918652E-2,6.581830978E-2,1.252825568E-1
8.433445821E0,1.033067703E-1,-3.929495811E-2,3.467512131E-2,1.158393136E-1
8.441652090E0,1.177144051E-1,-2.984750271E-2,2.022218704E-2,1.231117030E-1
8.449893705E0,1.082825661E-1,-2.282023430E-2,3.435945511E-2,1.158725566E-1
8.458102090E0,1.229524612E-1,-6.138324738E-3,3.873729706E-2,1.290564409E-1
8.466308821E0,1.303400993E-1,-3.737950325E-2,3.365182877E-2,1.397076030E-1
8.474519628E0,1.521363258E-1,-3.011143208E-2,6.447982788E-2,1.679577571E-1
8.482726359E0,1.618099213E-1,-4.935705662E-2,4.996728897E-2,1.763952937E-1
8.490968282E0,1.283612251E-1,-3.718090057E-2,6.190061569E-2,1.472776619E-1
8.499175820E0,9.233665466E-2,-3.743016720E-2,5.958604813E-2,1.160929470E-1
8.507383359E0,9.711122513E-2,-3.035604954E-2,5.717992783E-2,1.167117129E-1
8.515616013E0,8.527183533E-2,-5.670654774E-2,6.179571152E-2,1.196061387E-1
8.523823974E0,7.578229904E-2,-2.568924427E-2,4.489707947E-2,9.175315724E-2
8.532066474E0,9.019899368E-2,-1.383030415E-2,6.634998322E-2,1.128248911E-1
8.540273820E0,9.757804871E-2,-1.387047768E-2,8.045101166E-2,1.272251194E-1
8.548482166E0,1.144542694E-1,3.228187561E-4,9.941053391E-2,1.515992686E-1
8.556696243E0,8.565044403E-2,-2.376937866E-2,1.018619537E-1,1.351918620E-1
8.564905282E0,1.046485901E-1,-1.677787304E-2,9.722566605E-2,1.438250832E-1
8.573148282E0,9.744167328E-2,-3.847050667E-2,9.243106842E-2,1.397081314E-1
8.581356205E0,1.046557426E-1,-2.207481861E-2,7.554054260E-2,1.309446282E-1
8.589564820E0,1.022219658E-1,-1.741874218E-2,5.879688263E-2,1.192049339E-1
8.597781051E0,9.257888794E-2,-2.721881866E-2,6.840419769E-2,1.182829186E-1
8.605990897E0,1.139039993E-1,-1.047658920E-2,5.671596527E-2,1.276737275E-1
8.614234551E0,7.784223557E-2,-1.554250717E-2,7.838678360E-2,1.115592713E-1
8.622443397E0,9.689044952E-2,-2.768528461E-2,7.369041443E-2,1.248379404E-1
8.630652358E0,1.087946892E-1,-2.772367001E-2,8.573865891E-2,1.412657209E-1
8.638867051E0,1.207256317E-1,-3.012621403E-2,8.339118958E-2,1.497877079E-1
8.647075743E0,1.204438210E-1,-4.229712486E-2,7.652187347E-2,1.488333225E-1
8.655318781E0,1.106624603E-1,-3.496932983E-2,6.245946884E-2,1.317961282E-1
8.663526281E0,1.103734970E-1,-2.785098553E-2,7.239198685E-2,1.349021349E-1
8.671737858E0,8.139896393E-2,-4.234778881E-2,6.070184708E-2,1.100174567E-1
8.679954627E0,9.069681168E-2,-2.561151981E-2,4.429721832E-2,1.041350332E-1
8.688164397E0,1.095309258E-1,-4.243111610E-2,3.990650177E-2,1.240562461E-1
8.696408589E0,1.188569069E-1,-3.778660297E-2,5.216455460E-2,1.351885070E-1
8.704616435E0,1.162133217E-1,-5.709671974E-2,4.526519775E-2,1.371659931E-1
8.712825666E0,1.015238762E-1,-5.261564255E-2,5.518150330E-2,1.269665373E-1
8.721041858E0,1.372456551E-1,-5.536985397E-2,6.252145767E-2,1.606584054E-1
8.729252204E0,1.443209648E-1,-3.155255318E-2,3.868579865E-2,1.527111506E-1
8.737495704E0,1.130757332E-1,-5.558693409E-2,4.360580444E-2,1.333322724E-1
8.745703281E0,1.200766563E-1,-6.783962250E-2,4.855966568E-2,1.462144278E-1
8.753910242E0,1.342635155E-1,-6.296277046E-2,6.796455383E-2,1.631262782E-1
8.762130089E0,1.125025749E-1,-6.310117245E-2,5.623435974E-2,1.407156372E-1
8.770338242E0,1.195230484E-1,-9.672868252E-2,3.007984161E-2,1.566748033E-1
8.778580396E0,1.218957901E-1,-7.743692398E-2,3.253698349E-2,1.480328211E-1
8.786788435E0,1.433629990E-1,-7.002484798E-2,2.791166306E-2,1.619737316E-1
8.794996588E0,1.457419395E-1,-1.009541750E-1,4.713344574E-2,1.834503205E-1
8.803207973E0,1.649522781E-1,-7.204055786E-2,5.668354034E-2,1.887117373E-1
8.811417358E0,1.482548714E-1,-5.261981487E-2,7.103681564E-2,1.726110685E-1
8.819663396E0,1.173558235E-1,-4.286634922E-2,5.642366409E-2,1.370895440E-1
8.827873665E0,9.352922440E-2,-3.556692600E-2,4.672670364E-2,1.104359854E-1
8.836083319E0,9.618806839E-2,-3.331887722E-2,3.437900543E-2,1.074439765E-1
8.844297973E0,1.061134338E-1,-4.044258595E-2,1.957798004E-2,1.152343738E-1
8.852507242E0,1.065597534E-1,-3.081333637E-2,5.253314972E-2,1.227361991E-1
8.860751434E0,9.280347824E-2,-4.757046700E-2,6.132459641E-2,1.209799199E-1
8.868961165E0,1.005716324E-1,-2.130484581E-2,1.036462784E-1,1.459832207E-1
8.877170550E0,1.060171127E-1,-2.389752865E-2,1.051411629E-1,1.512130424E-1
8.885387165E0,1.088986397E-1,-5.015134811E-3,1.188092232E-1,1.612442148E-1
8.893594857E0,7.574081421E-2,1.366209984E-2,9.906911850E-2,1.254512421E-1
8.901835627E0,8.338737488E-2,6.168961525E-3,9.599924088E-2,1.273081483E-1
8.910041357E0,6.927347183E-2,1.037240028E-2,8.594894409E-2,1.108766052E-1
8.918248973E0,5.011415482E-2,1.934027672E-2,7.862138748E-2,9.521973213E-2
8.926463011E0,5.265855789E-2,2.161622047E-3,6.395721436E-2,8.287413105E-2
8.934672511E0,4.572725296E-2,1.882433891E-3,4.680252075E-2,6.545992033E-2
8.942918434E0,7.234334946E-2,-1.752626896E-2,7.510519028E-2,1.057427062E-1
8.951125511E0,7.736635208E-2,-3.914320469E-2,9.873008728E-2,1.313977665E-1
8.959333857E0,9.665393829E-2,-2.967274189E-2,9.853029251E-2,1.411760388E-1
8.967544549E0,9.674358368E-2,-2.753531933E-2,1.055331230E-1,1.457901055E-1
8.975753511E0,7.029247284E-2,-1.132619381E-2,1.223006248E-1,1.415159258E-1
8.983997626E0,7.265281677E-2,-2.132594585E-2,1.078720093E-1,1.317937712E-1
8.992205895E0,6.058645248E-2,-7.428407669E-3,8.393621445E-2,1.037843320E-1
9.000412472E0,5.808591843E-2,-8.065819740E-3,8.630704880E-2,1.043452828E-1
9.008636857E0,6.037139893E-2,-2.291464806E-2,7.435512543E-2,9.848081834E-2
9.016844895E0,8.658838272E-2,-1.602578163E-2,6.485748291E-2,1.093657478E-1
9.025088549E0,1.200380325E-1,-2.113819122E-2,8.641338348E-2,1.494095888E-1
9.033296972E0,1.102185249E-1,-1.648449898E-2,9.866094589E-2,1.488416749E-1
9.041504549E0,9.059667587E-2,-2.158927917E-2,9.918642044E-2,1.360580782E-1
9.049716549E0,9.249258041E-2,-3.401911259E-2,9.731912613E-2,1.385033926E-1
9.057923164E0,9.925413132E-2,-2.003240585E-2,8.340167999E-2,1.311812490E-1
9.066165703E0,1.084995270E-1,-4.426074028E-2,5.023956299E-2,1.274957810E-1
9.074372126E0,1.129665375E-1,-2.313721180E-2,4.336547852E-2,1.231963225E-1
9.082579741E0,9.343528748E-2,-4.959619045E-2,1.509094238E-2,1.068535053E-1
9.090793934E0,1.099147797E-1,-7.644128799E-2,1.532411575E-2,1.347566615E-1
9.099001203E0,1.431536674E-1,-8.128046989E-2,3.961420059E-2,1.693185524E-1
9.107242780E0,1.500167847E-1,-8.127546310E-2,3.523921967E-2,1.742198014E-1
9.115449203E0,1.640291214E-1,-6.918430328E-2,4.051351547E-2,1.825742737E-1
9.123656626E0,1.230192184E-1,-4.303765297E-2,4.804754257E-2,1.389047660E-1
9.131866780E0,1.082963943E-1,-4.796826839E-2,3.889751434E-2,1.246678805E-1
9.140074241E0,1.175117493E-1,-3.133356571E-2,2.017784119E-2,1.232799612E-1
9.148316395E0,1.173844337E-1,-1.703894138E-2,2.032470703E-2,1.203433610E-1
9.156524126E0,1.125135422E-1,-5.514132977E-2,4.681777954E-2,1.337601133E-1
9.164731318E0,1.267814636E-1,-3.111553192E-2,3.978347778E-2,1.364713924E-1
9.172953895E0,1.053915024E-1,-4.753386974E-2,5.881786346E-2,1.297165318E-1
9.181161395E0,1.078643799E-1,-3.798723221E-2,5.870914459E-2,1.285477262E-1
9.189404279E0,1.200466156E-1,-3.557872772E-2,8.477544785E-2,1.512081755E-1
9.197611510E0,1.154308319E-1,-1.393485069E-2,6.542444229E-2,1.334121983E-1
9.205818664E0,1.155805588E-1,-2.572107315E-2,7.245969772E-2,1.388194762E-1
9.214030625E0,8.240938187E-2,-1.111996174E-2,6.249332428E-2,1.040210332E-1
9.222238471E0,9.472990036E-2,-3.717160225E-2,5.493021011E-2,1.156408666E-1
9.230481664E0,1.187491417E-1,-2.987205982E-2,6.204319000E-2,1.372700114E-1
9.238689241E0,1.045565605E-1,-2.234232426E-2,5.711936951E-2,1.212182997E-1
9.246895625E0,8.330535889E-2,-4.121410847E-2,6.877708435E-2,1.156229773E-1
9.255116856E0,1.145944595E-1,-4.829657078E-2,7.098484039E-2,1.431897219E-1
9.263322741E0,9.087371826E-2,-4.561793804E-2,6.598281860E-2,1.212137009E-1
9.271565894E0,8.633232117E-2,-5.024611950E-2,7.288789749E-2,1.236551164E-1
9.279774702E0,1.009082794E-1,-3.085589409E-2,6.788635254E-2,1.254716060E-1
9.287980894E0,9.644794464E-2,-2.594435215E-2,6.510019302E-2,1.192197574E-1
9.296191471E0,9.910154343E-2,-4.489850998E-2,7.918024063E-2,1.345604051E-1
9.304397740E0,9.704828262E-2,-3.762066364E-2,6.679439545E-2,1.236736623E-1
9.312641163E0,9.483575821E-2,-4.238247871E-2,7.374763489E-2,1.273923435E-1
9.320847010E0,1.117739677E-1,-2.084195614E-2,8.069896698E-2,1.394278676E-1
9.329053010E0,1.119461060E-1,-2.075445652E-2,8.049869537E-2,1.394371474E-1
9.337264202E0,9.062480927E-2,-3.885984421E-3,9.220457077E-2,1.293431088E-1
9.345470048E0,1.123795509E-1,1.039516926E-2,7.515668869E-2,1.355940665E-1
9.353710933E0,8.614969254E-2,-1.589453220E-2,7.503271103E-2,1.153443254E-1
9.361916125E0,7.907772064E-2,-8.566021919E-3,7.731914520E-2,1.109275117E-1
9.370122009E0,8.645629883E-2,-3.246140480E-2,9.144592285E-2,1.299645768E-1
9.378332548E0,8.410692215E-2,-4.180657864E-2,6.750392914E-2,1.156656596E-1
9.386538471E0,9.120082855E-2,-5.126023293E-2,7.722711563E-2,1.300354951E-1
9.394779817E0,9.359550476E-2,-6.310820580E-2,9.401416779E-2,1.469061874E-1
9.402984855E0,9.358978271E-2,-3.896284103E-2,9.407472610E-2,1.383011370E-1
9.411189855E0,9.355258942E-2,-4.617476463E-2,9.411430359E-2,1.405051530E-1
9.419402432E0,1.199131012E-1,-2.441811562E-2,7.019281387E-2,1.410759630E-1
9.427609817E0,1.246137619E-1,-2.186572552E-2,5.119228363E-2,1.364820483E-1
9.435852240E0,1.148633957E-1,-3.624129295E-2,5.859756470E-2,1.339429191E-1
9.444059971E0,1.074542999E-1,-4.595708847E-2,5.167102814E-2,1.277825329E-1
9.452268124E0,9.755802155E-2,-2.429354191E-2,6.408357620E-2,1.192243620E-1
9.460480701E0,8.052253723E-2,-1.719796658E-2,5.005359650E-2,9.635876493E-2
9.468691047E0,1.018629074E-1,-1.218342781E-2,4.319477081E-2,1.113116168E-1
9.476936317E0,8.970355988E-2,-2.402734756E-2,4.346895218E-2,1.025358078E-1
9.485145932E0,1.015362740E-1,-3.335523605E-2,5.089473724E-2,1.183742412E-1
9.493355932E0,9.670639038E-2,-3.540563583E-2,5.821657181E-2,1.182998488E-1
9.501582278E0,1.254043579E-1,-2.095115185E-2,7.264566422E-2,1.464329071E-1
9.509791355E0,1.060824394E-1,-8.689522743E-3,7.293653488E-2,1.290299573E-1
9.518035855E0,1.417875290E-1,1.300370693E-2,8.281803131E-2,1.647168057E-1
9.526243470E0,1.152853966E-1,-1.808679104E-2,7.585811615E-2,1.391844404E-1
9.534452393E0,1.030168533E-1,-1.812982559E-2,6.904840469E-2,1.253349306E-1
9.542666124E0,1.074895859E-1,-8.432626724E-3,6.230401993E-2,1.245267488E-1
9.550873316E0,9.757137299E-2,-2.263879776E-2,4.123783112E-2,1.083201122E-1
9.559115316E0,9.495019913E-2,-1.301848888E-2,3.675270081E-2,1.026439593E-1
9.567323624E0,1.114912033E-1,-4.144275188E-2,4.668903351E-2,1.277797165E-1
9.575531009E0,1.209778786E-1,-4.118311405E-2,4.926538467E-2,1.369626742E-1
9.583743624E0,1.185331345E-1,-6.005787849E-2,8.292007446E-2,1.566294719E-1
9.591950509E0,9.459495544E-2,-5.487394333E-2,7.822513580E-2,1.344564135E-1
9.600193201E0,1.278781891E-1,-4.014337063E-2,6.904602051E-2,1.507702703E-1
9.608398624E0,1.228809357E-1,-4.941868782E-2,5.741930008E-2,1.443568740E-1
9.616604470E0,1.012320518E-1,-5.160045624E-2,6.239271164E-2,1.296278746E-1
9.624815047E0,1.035642624E-1,-4.201376438E-2,6.486892700E-2,1.292234133E-1
9.633023585E0,9.394407272E-2,-6.100904942E-2,4.341936111E-2,1.201367297E-1
9.641266124E0,1.082324982E-1,-4.170441628E-2,4.834461212E-2,1.256611854E-1
9.649472931E0,1.128535271E-1,-5.826520920E-2,6.537055969E-2,1.428427921E-1
9.657680893E0,1.248316765E-1,-4.834842682E-2,7.741785049E-2,1.546416548E-1
9.665893739E0,9.609317780E-2,-4.092955589E-2,7.748842239E-2,1.300522317E-1
9.674100008E0,8.149671555E-2,-2.916812897E-2,7.294464111E-2,1.131963562E-1
9.682344777E0,9.566593170E-2,-1.935148239E-2,6.847095490E-2,1.192255091E-1
9.690552970E0,1.026515961E-1,-2.660489082E-2,6.870698929E-2,1.263559289E-1
9.698762200E0,8.336639404E-2,-3.856384754E-2,4.733228683E-2,1.033318507E-1
9.706974662E0,1.072635651E-1,-3.143584728E-2,5.695438385E-2,1.254491400E-1
9.715180508E0,8.801698685E-2,-5.072665215E-2,5.225038528E-2,1.142378483E-1
9.723423431E0,1.190161705E-1,-3.177738190E-2,6.433248520E-2,1.389723695E-1
9.731631085E0,1.142082214E-1,-5.337905884E-2,5.955553055E-2,1.394263353E-1
9.739839277E0,1.261754036E-1,-5.087077618E-2,7.395315170E-2,1.548455262E-1
9.748060662E0,1.141953468E-1,-5.091893673E-2,8.353042603E-2,1.503683724E-1
9.756269854E0,1.189541817E-1,-6.529915333E-2,8.356428146E-2,1.593645691E-1
9.764515316E0,9.018230438E-2,-5.323624611E-2,7.406473160E-2,1.282674175E-1
9.772722316E0,9.240818024E-2,-4.141581059E-2,7.185029984E-2,1.241652396E-1
9.780930162E0,1.115093231E-1,-6.297504902E-2,5.036830902E-2,1.376123268E-1
9.789143277E0,1.162505150E-1,-5.090439320E-2,5.524301529E-2,1.384096464E-1
9.797350469E0,1.066250801E-1,-3.655850887E-2,5.290508270E-2,1.245165855E-1
9.805593392E0,1.065912247E-1,-4.845869541E-2,4.817962646E-2,1.266144176E-1
9.813798969E0,1.138615608E-1,-3.387153149E-2,6.966924667E-2,1.377154298E-1
9.822005008E0,9.725856781E-2,-5.049669743E-2,7.428932190E-2,1.323935377E-1
9.830217661E0,9.977579117E-2,-3.358256817E-2,5.262279510E-2,1.176951824E-1
9.838425161E0,1.143174171E-1,-2.864062786E-2,5.961465836E-2,1.320706815E-1
9.846670008E0,1.095995903E-1,-4.053211212E-2,5.954265594E-2,1.311497243E-1
9.854877354E0,1.073732376E-1,-3.799474239E-2,5.697107315E-2,1.273511515E-1
9.863084931E0,9.557342529E-2,-4.041171074E-2,6.392431259E-2,1.218757717E-1
9.871298892E0,1.053338051E-1,-5.949103832E-2,7.567787170E-2,1.426938485E-1
9.879507661E0,1.077947617E-1,-4.534876347E-2,7.553529739E-2,1.392185409E-1
9.887750815E0,1.056122780E-1,-3.819465637E-2,7.286071777E-2,1.338710918E-1
9.895959507E0,1.176953316E-1,-1.909565926E-2,5.594158173E-2,1.317053372E-1
9.904167930E0,9.628438950E-2,-1.940429211E-2,6.287050247E-2,1.166186533E-1
9.912382661E0,8.443498611E-2,-2.814173698E-3,7.464218140E-2,1.127326115E-1
9.920590161E0,1.059980392E-1,-1.715600491E-2,7.223415375E-2,1.294128502E-1
9.928834738E0,9.634113312E-2,-1.479840279E-2,7.472276688E-2,1.228173381E-1
9.937041892E0,9.630489349E-2,-4.838705063E-2,6.756925583E-2,1.272066960E-1
9.945251584E0,1.011099815E-1,-3.405559063E-2,5.556583405E-2,1.202936970E-1
9.953464430E0,9.639310837E-2,-5.568075180E-2,6.263780594E-2,1.277320328E-1
9.961673469E0,1.251134872E-1,-3.880047798E-2,6.747007370E-2,1.473467768E-1
9.969918930E0,1.107487679E-1,-2.451407909E-2,6.266164780E-2,1.295866959E-1
9.978127392E0,9.641599655E-2,-2.213847637E-2,6.979656219E-2,1.210690572E-1
9.986336853E0,1.177778244E-1,-1.716852188E-2,7.247591019E-2,1.393525444E-1
9.994568853E0,1.317911148E-1,-1.950514317E-2,8.970642090E-2,1.606131704E-1
1.000277639E1,1.289110184E-1,-2.199721336E-2,8.791542053E-2,1.575787080E-1
1.001102051E1,1.403298378E-1,-3.905117512E-2,9.094810486E-2,1.717236601E-1
1.001922932E1,1.420207024E-1,-5.621755123E-2,9.175443649E-2,1.781829666E-1
1.002743816E1,1.533427238E-1,-6.153881550E-2,4.218006134E-2,1.705291012E-1
1.003565328E1,1.740684509E-1,-5.246317387E-2,2.098083496E-5,1.818026696E-1
1.004386354E1,1.923875809E-1,-5.049014091E-2,-3.252506256E-2,2.015443259E-1
1.005210601E1,1.868391037E-1,-2.912962437E-2,-4.116630554E-2,1.935253224E-1
1.006031543E1,1.715812683E-1,-2.006518841E-2,-5.211114883E-2,1.804392287E-1
1.006852447E1,1.491074562E-1,-3.661394119E-3,-2.945518494E-2,1.520330465E-1
1.007673901E1,1.578388214E-1,-1.420497894E-3,-6.851196289E-3,1.579938298E-1
1.008494824E1,-2.210140228E-2,3.441572189E-2,-8.778572083E-3,4.183272910E-2
1.009319139E1,4.740905762E-2,6.312716007E-2,2.702808380E-2,8.344563737E-2
1.010139924E1,1.892113686E-1,1.140725613E-2,8.163022995E-2,2.063845002E-1
1.010960854E1,1.057839394E-1,1.651549339E-2,1.267228127E-1,1.658965780E-1
1.011782097E1,5.809688568E-2,4.502654076E-3,8.336210251E-2,1.017092039E-1
1.012602920E1,9.677648544E-2,1.715672016E-2,5.671596527E-2,1.134757326E-1
1.013427316E1,1.137828827E-1,1.084959507E-2,4.943513870E-2,1.245314862E-1
1.014248362E1,1.237435341E-1,2.279043198E-3,5.637598038E-2,1.359996597E-1
1.015069574E1,1.217675209E-1,-1.772475243E-2,8.734893799E-2,1.509017328E-1
1.015891116E1,5.002021790E-2,-4.452466965E-3,1.282801628E-1,1.377593802E-1
1.016711893E1,1.191215515E-1,-6.560397148E-2,8.349752426E-2,1.595796405E-1
1.017536328E1,2.196331024E-1,-1.100721359E-1,1.077570915E-1,2.682651031E-1
1.018357028E1,1.050081253E-1,-1.068587303E-1,1.746187210E-1,2.300808387E-1
1.019177789E1,7.470178604E-2,-1.469130516E-1,2.335810661E-1,2.858739513E-1
1.019999081E1,2.235221863E-2,-1.464445591E-1,2.165212631E-1,2.623491718E-1
1.020819931E1,-1.802492142E-2,-1.222685575E-1,1.706709862E-1,2.107203917E-1
1.021644262E1,-8.912038803E-2,-7.183670998E-2,1.123027802E-1,1.603585698E-1
1.022465101E1,-4.499673843E-2,1.203155518E-2,7.507896423E-2,8.835335681E-2
1.023285978E1,-1.176834106E-3,5.765259266E-2,8.375501633E-2,1.016863272E-1
1.024108455E1,3.761291504E-2,4.592823982E-2,1.430473328E-1,1.548763184E-1
1.024929528E1,9.971427917E-2,3.886103630E-2,9.538221359E-2,1.433557961E-1
1.025753854E1,1.039290428E-1,-1.387405396E-2,6.019496918E-2,1.209014873E-1
1.026574616E1,1.226987839E-1,-8.329081535E-2,5.351305008E-2,1.576578511E-1
1.027395451E1,1.961483955E-1,-1.095930338E-1,6.409502029E-2,2.336514450E-1
1.028216439E1,1.470832825E-1,-1.100262403E-1,3.917694092E-2,1.878139991E-1
1.029037097E1,1.172084808E-1,-1.511245966E-1,5.013513565E-2,1.977119205E-1
1.029861378E1,1.355905533E-1,-2.156201601E-1,3.680658340E-2,2.573549614E-1
1.030682054E1,1.327095032E-1,-1.456480026E-1,3.278684616E-2,1.997501694E-1
1.031502920E1,1.132597923E-1,-6.372141838E-2,-2.176523209E-2,1.317646578E-1
1.032324274E1,1.107220650E-1,-3.001785278E-2,-2.392435074E-2,1.171871227E-1
1.033145043E1,1.271395683E-1,-3.701519966E-2,-1.887321472E-3,1.324317063E-1
1.033969297E1,1.148023605E-1,-5.604267120E-2,5.368614197E-2,1.385733193E-1
1.034789951E1,1.167278290E-1,-8.921444416E-2,9.029579163E-2,1.724468993E-1
1.035610724E1,1.018676758E-1,-1.058839560E-1,1.077203751E-1,1.821870322E-1
1.036432039E1,1.254429817E-1,-7.490456104E-2,1.249170303E-1,1.922261673E-1
1.037252912E1,1.180505753E-1,-6.547403336E-2,1.107854843E-1,1.746316435E-1
1.038077235E1,1.467161179E-1,-1.349866390E-2,5.562734604E-2,1.574872528E-1
1.038898104E1,1.393241882E-1,2.375960350E-2,1.014041901E-2,1.416988930E-1
1.039719100E1,1.461930275E-1,6.124687195E-2,3.155231476E-3,1.585355988E-1
1.040540654E1,1.385025978E-1,6.068933010E-2,1.277923584E-3,1.512210219E-1
1.041361497E1,1.427474022E-1,5.561363697E-2,3.542757034E-2,1.572412484E-1
1.042185862E1,1.589355469E-1,4.340016842E-2,4.328966141E-2,1.703469327E-1
1.043006701E1,9.632682800E-2,3.350424767E-2,5.564737320E-2,1.161809905E-1
1.043827424E1,1.226706505E-1,9.401440620E-3,8.432579041E-2,1.491553368E-1
1.044648431E1,1.349205971E-1,1.156115532E-2,6.714487076E-2,1.511478134E-1
1.045469239E1,1.160392761E-1,4.232788086E-2,4.275846481E-2,1.307097908E-1
1.046293624E1,1.115450859E-1,6.078600883E-3,4.468536377E-2,1.203164050E-1
1.047114408E1,9.990024567E-2,-8.437514305E-3,5.619573593E-2,1.149313337E-1
1.047935220E1,9.539747238E-2,-1.823604107E-2,7.492208481E-2,1.226643784E-1
1.048757004E1,9.560585022E-2,-5.905866623E-2,6.504440308E-2,1.298429013E-1
1.049577624E1,1.076674461E-1,-4.008007050E-2,8.643102646E-2,1.437672193E-1
1.050401735E1,1.126708984E-1,-5.697500706E-2,9.329986572E-2,1.569896421E-1
1.051222547E1,1.082873344E-1,-5.219912529E-2,6.643629074E-2,1.373487394E-1
1.052043239E1,1.013531685E-1,-3.573596478E-2,7.561492920E-2,1.314044956E-1
1.052864470E1,9.686470032E-2,-7.176208496E-2,4.646825790E-2,1.291970046E-1
1.053685258E1,1.210017204E-1,-5.275487900E-2,5.814838409E-2,1.442419085E-1
1.054509358E1,1.092014313E-1,-6.491923332E-2,8.660840988E-2,1.537545970E-1
1.055330070E1,7.824897766E-2,-5.801475048E-2,7.913351059E-2,1.255018975E-1
1.056150881E1,7.851409912E-2,-4.393243790E-2,8.350515366E-2,1.227502894E-1
1.056972339E1,7.858753204E-2,-6.344246864E-2,7.134914398E-2,1.236594006E-1
1.057793131E1,8.603715897E-2,-4.456663132E-2,8.290243149E-2,1.275201572E-1
1.058617358E1,8.627557755E-2,-4.479634762E-2,8.014154434E-2,1.259875199E-1
1.059438039E1,8.407402039E-2,-5.466687679E-2,7.263469696E-2,1.238253105E-1
1.060258943E1,7.448816299E-2,-4.077625275E-2,7.492017746E-2,1.132440824E-1
1.061080058E1,6.267023087E-2,-6.724047661E-2,7.708311081E-2,1.199610166E-1
1.061900693E1,8.903169632E-2,-3.648543358E-2,7.935094833E-2,1.247172916E-1
1.062724785E1,9.382629395E-2,-4.650831223E-2,9.359598160E-2,1.404514304E-1
1.063545366E1,8.432912827E-2,-4.684090614E-2,8.143758774E-2,1.262440219E-1
1.064366174E1,8.428621292E-2,-3.295910358E-2,6.461095810E-2,1.111982199E-1
1.065187500E1,1.012077332E-1,-3.340613842E-2,7.386493683E-2,1.296726811E-1
1.066008312E1,1.157054901E-1,-4.090261459E-2,6.643199921E-2,1.395492560E-1
1.066832535E1,1.276149750E-1,-2.928042412E-2,6.402826309E-2,1.457482197E-1
1.067653350E1,1.323161125E-1,-5.590856075E-2,6.646156311E-2,1.582733716E-1
1.068474200E1,1.465344429E-1,-2.753257751E-2,6.177377701E-2,1.613889256E-1
1.069295554E1,1.272130013E-1,-8.815407753E-3,4.512166977E-2,1.352657539E-1
1.070116443E1,1.223821640E-1,-2.588140965E-2,4.988765717E-2,1.346700404E-1
1.070940954E1,1.295838356E-1,-3.591871262E-2,2.340984344E-2,1.364922897E-1
1.071761720E1,1.129512787E-1,-2.889144421E-2,8.842468262E-3,1.169226075E-1
1.072582370E1,1.203017235E-1,-2.196121216E-2,3.729295731E-2,1.278497719E-1
1.073404089E1,1.155753136E-1,-3.419005871E-2,3.954029083E-2,1.268465523E-1
1.074224689E1,1.323280334E-1,-1.524817944E-2,6.583213806E-2,1.485835987E-1
1.075048793E1,1.155858040E-1,-2.252602577E-2,7.296848297E-2,1.385348311E-1
1.075869397E1,1.037893295E-1,-1.258134842E-3,7.506418228E-2,1.280954304E-1
1.076689947E1,1.015601158E-1,-1.473903656E-3,5.324888229E-2,1.146824877E-1
1.077510885E1,9.705781937E-2,-4.167795181E-3,6.477546692E-2,1.167623738E-1
1.078331477E1,1.189360619E-1,-3.056252003E-2,8.348608017E-2,1.484916833E-1
1.079155489E1,9.293508530E-2,-3.815543652E-2,8.294916153E-2,1.302817363E-1
1.079975981E1,1.100392342E-1,-1.475298405E-2,8.715438843E-2,1.411459210E-1
1.080796389E1,1.270542145E-1,-5.273103714E-3,7.482910156E-2,1.475465129E-1
1.081617358E1,1.129536629E-1,-3.100872040E-3,8.640193939E-2,1.422442986E-1
1.082437650E1,1.130704880E-1,-1.990234852E-2,7.426929474E-2,1.367368526E-1
1.083261658E1,8.683395386E-2,-3.426325321E-2,5.977535248E-2,1.108476379E-1
1.084082050E1,8.700609207E-2,-1.747250557E-2,8.350372314E-2,1.218532736E-1
1.084902462E1,5.357551575E-2,-3.654730320E-2,7.143783569E-2,9.648526119E-2
1.085723454E1,6.325721741E-2,-4.599750042E-2,7.133483887E-2,1.058579465E-1
1.086543993E1,8.497428894E-2,-5.559611320E-2,7.589769363E-2,1.267754609E-1
1.087368185E1,7.803010941E-2,-6.028187275E-2,5.406713486E-2,1.124538004E-1
1.088188889E1,9.488296509E-2,-7.667648792E-2,6.600999832E-2,1.387060948E-1
1.089009716E1,9.013986588E-2,-8.372402191E-2,6.598520279E-2,1.396028447E-1
1.089830989E1,1.045050621E-1,-6.677722931E-2,6.842613220E-2,1.416426557E-1
1.090651585E1,9.483861923E-2,-4.289472103E-2,8.049869537E-2,1.315840444E-1
1.091475831E1,8.757829666E-2,-6.428074837E-2,5.430316925E-2,1.214528997E-1
1.092296397E1,9.697055817E-2,-7.858908176E-2,5.216217041E-2,1.352790632E-1
1.093116773E1,1.135492325E-1,-8.325541019E-2,5.003404617E-2,1.494265616E-1
1.093937570E1,9.898710251E-2,-6.169331074E-2,6.465625763E-2,1.333601991E-1
1.094758127E1,8.712244034E-2,-7.839870453E-2,8.368635178E-2,1.440141728E-1
1.095582131E1,8.005905151E-2,-4.506206512E-2,1.050348282E-1,1.395433860E-1
1.096402585E1,8.270549774E-2,-4.773902893E-2,7.351207733E-2,1.205124050E-1
1.097223085E1,1.042828560E-1,-3.850197792E-2,6.381177902E-2,1.281766730E-1
1.098045204E1,8.968162537E-2,6.645202637E-3,4.966449738E-2,1.027303020E-1
1.098865720E1,1.109032631E-1,-2.732622623E-2,5.476140976E-2,1.266691296E-1
1.099690066E1,1.033744812E-1,-2.539598942E-2,6.706285477E-2,1.258120270E-1
1.100510685E1,8.398246765E-2,-3.536713123E-2,6.487846375E-2,1.118619860E-1
1.101331439E1,1.052489281E-1,-2.609300613E-2,5.798339844E-2,1.229644515E-1
1.102152812E1,1.145610809E-1,-2.167928219E-2,4.386615753E-2,1.245731605E-1
1.102973412E1,1.166777611E-1,-1.484048367E-2,4.413938522E-2,1.256273267E-1
1.103797431E1,1.213726997E-1,-1.282930374E-2,2.979850769E-2,1.256338901E-1
1.104617835E1,1.188731194E-1,-8.323073387E-3,2.986240387E-2,1.228489122E-1
1.105438354E1,1.235690117E-1,5.748033524E-3,4.187917709E-2,1.305994105E-1
1.106259681E1,1.163730621E-1,1.752018929E-2,6.579017639E-2,1.348257911E-1
1.107080350E1,9.246206284E-2,2.237248421E-2,5.379343033E-2,1.092862949E-1
1.107904708E1,1.211991310E-1,4.402029514E-2,8.972406387E-2,1.570904942E-1
1.108725427E1,1.092309952E-1,3.907883167E-2,8.010435104E-2,1.409796881E-1
1.109546023E1,1.141028404E-1,2.242755890E-2,8.720779419E-2,1.453535447E-1
1.110366823E1,8.532667160E-2,5.351734161E-2,1.016225815E-1,1.430800329E-1
1.111187373E1,9.017992020E-2,1.060605049E-2,8.243131638E-2,1.226369774E-1
1.112011443E1,8.999729156E-2,-1.798772812E-2,8.030843735E-2,1.219529252E-1
1.112831950E1,1.114115715E-1,-8.024692535E-3,1.045203209E-1,1.529752641E-1
1.113652346E1,1.161313057E-1,-9.853601456E-3,1.023564339E-1,1.551141940E-1
1.114473508E1,1.231446266E-1,-7.108926773E-3,9.308719635E-2,1.545327215E-1
1.115293912E1,1.157498360E-1,5.273699760E-3,9.107208252E-2,1.473769339E-1
1.116117908E1,1.226940155E-1,8.192062378E-4,8.906936646E-2,1.516174284E-1
1.116938504E1,1.033349037E-1,-1.562511921E-2,6.068372726E-2,1.208501611E-1
1.117759154E1,8.627939224E-2,-2.019608021E-2,5.633497238E-2,1.050030680E-1
1.118580135E1,8.356761932E-2,-2.707600594E-2,3.527450562E-2,9.466228311E-2
1.119400573E1,1.024026871E-1,-5.536568165E-2,5.016374588E-2,1.267598928E-1
1.120224535E1,1.069455147E-1,-7.433080673E-2,6.010627747E-2,1.434404982E-1
1.121045158E1,1.185164452E-1,-7.399713993E-2,5.591869354E-2,1.504946005E-1
1.121865623E1,1.204810143E-1,-7.622206211E-2,6.609392166E-2,1.571428778E-1
1.122687939E1,9.375524521E-2,-7.364428043E-2,6.185817719E-2,1.343129187E-1
1.123508462E1,1.149053574E-1,-8.774316311E-2,6.244087219E-2,1.574832256E-1
1.124332470E1,1.240210533E-1,-1.183463335E-1,3.922939301E-2,1.758579586E-1
1.125152908E1,9.977960587E-2,-1.200666428E-1,2.542066574E-2,1.581713587E-1
1.125973304E1,1.089906693E-1,-1.505551338E-1,3.323936462E-2,1.888138492E-1
1.126793923E1,1.279401779E-1,-1.186949015E-1,3.129529953E-2,1.773035942E-1
1.127614235E1,1.278409958E-1,-1.298149824E-1,3.642988205E-2,1.858020080E-1
1.128438377E1,1.469230652E-1,-1.072634459E-1,4.156398773E-2,1.865995685E-1
1.129258943E1,1.276803017E-1,-6.336975098E-2,5.145883560E-2,1.515453613E-1
1.130079512E1,1.300840378E-1,-5.069780350E-2,3.965282440E-2,1.451360419E-1
1.130900727E1,1.060972214E-1,-4.544615746E-2,5.179929733E-2,1.265114256E-1
1.131721219E1,7.734918594E-2,-4.028213024E-2,4.952287674E-2,1.002898893E-1
1.132545108E1,9.636831284E-2,-4.726731777E-2,6.171894073E-2,1.238155026E-1
1.133365643E1,7.963132858E-2,-3.758013248E-2,4.495763779E-2,9.886659721E-2
1.134186316E1,1.250448227E-1,-8.052802086E-2,4.748868942E-2,1.561286183E-1
1.135007319E1,1.154408455E-1,-6.100809574E-2,6.677103043E-2,1.466524703E-1
1.135827769E1,1.418294907E-1,-7.739841938E-2,6.200695038E-2,1.730635191E-1
1.136651785E1,1.322674751E-1,-2.935194969E-2,7.400226593E-2,1.543779689E-1
1.137472258E1,1.082501411E-1,-8.017420769E-3,1.003813744E-1,1.478471928E-1
1.138292854E1,1.176595688E-1,1.559698582E-2,9.093761444E-2,1.495215363E-1
1.139114131E1,8.161735535E-2,2.976322174E-2,6.232500076E-2,1.069188841E-1
1.139934658E1,6.469869614E-2,2.958464622E-2,7.685279846E-2,1.047259529E-1
1.140758716E1,3.827285767E-2,1.272404194E-2,6.736373901E-2,7.851487892E-2
1.141579262E1,6.213617325E-2,-1.607573032E-2,7.463264465E-2,9.843457106E-2
1.142399731E1,7.901525497E-2,-4.330635071E-3,7.442045212E-2,1.086304221E-1
1.143222069E1,9.818172455E-2,-2.373504639E-2,1.006746292E-1,1.426127078E-1
1.144042504E1,1.101112366E-1,-7.011890411E-3,1.174807549E-1,1.611687897E-1
1.144866554E1,1.410431862E-1,-9.234428406E-3,1.177730560E-1,1.839808353E-1
1.145686969E1,1.216411591E-1,2.398014069E-3,1.180086136E-1,1.694944097E-1
1.146507639E1,1.166453362E-1,-3.331899643E-4,9.903907776E-2,1.530195556E-1
1.147331400E1,1.041893959E-1,-1.024186611E-2,7.803726196E-2,1.305761858E-1
1.148151927E1,8.950567245E-2,-1.528763771E-2,6.162500381E-2,1.097388644E-1
1.148975996E1,1.012182236E-1,-3.206217289E-2,3.562068939E-2,1.119908265E-1
1.149796466E1,9.630298615E-2,-1.785457134E-2,4.053306580E-2,1.059999070E-1
1.150616742E1,1.154341698E-1,-3.942346573E-2,3.816270828E-2,1.278109913E-1
1.151437623E1,9.869766235E-2,-4.413378239E-2,3.575944901E-2,1.138760620E-1
1.152258039E1,1.226038933E-1,-4.882550240E-2,5.498361588E-2,1.429644793E-1
1.153082012E1,1.273689270E-1,-5.339789391E-2,4.788589478E-2,1.461753658E-1
1.153902542E1,1.391377449E-1,-4.371809959E-2,4.578161240E-2,1.528611799E-1
1.154723227E1,1.293764114E-1,-4.606533051E-2,6.758022308E-2,1.530599786E-1
1.155544573E1,1.078243256E-1,-3.863430023E-2,4.610061646E-2,1.234664374E-1
1.156365181E1,1.173868179E-1,-3.386628628E-2,4.611444473E-2,1.305876425E-1
1.157189216E1,1.150326729E-1,-3.631210327E-2,4.365444183E-2,1.282840402E-1
1.158009685E1,1.175017357E-1,-3.605377674E-2,2.925872803E-2,1.263432067E-1
1.158830081E1,1.081056595E-1,-5.745673180E-2,6.736946106E-2,1.397381620E-1
1.159650969E1,1.298131943E-1,-2.840995789E-2,6.484794617E-2,1.478642866E-1
1.160471412E1,1.276431084E-1,-4.020345211E-2,7.417821884E-2,1.530081332E-1
1.161295508E1,1.228470802E-1,-1.172637939E-2,7.891035080E-2,1.464778364E-1
1.162116019E1,9.176874161E-2,-1.419639587E-2,8.361911774E-2,1.249607796E-1
1.162936581E1,1.086473465E-1,-2.624166012E-2,5.232286453E-2,1.234121257E-1
1.163757566E1,1.016755104E-1,-2.402353287E-2,4.482269287E-2,1.136842704E-1
1.164578054E1,8.029079437E-2,-4.564094543E-2,4.698753357E-2,1.036220820E-1
1.165402250E1,1.113905907E-1,-4.331517220E-2,5.657625198E-2,1.322306323E-1
1.166222612E1,1.066198349E-1,-3.851449490E-2,4.937458038E-2,1.236487149E-1
1.167043027E1,1.306090355E-1,-5.769670010E-2,7.564210892E-2,1.615839039E-1
1.167864135E1,1.209344864E-1,-3.389680386E-2,7.812690735E-2,1.479119906E-1
1.168684696E1,1.089749336E-1,-5.056190491E-2,6.616640091E-2,1.371496810E-1
1.169508869E1,1.137819290E-1,-4.363036156E-2,6.607913971E-2,1.386231890E-1
1.170329639E1,9.965324402E-2,-4.842054844E-2,5.858755112E-2,1.253308410E-1
1.171150219E1,1.069989204E-1,-4.109418392E-2,6.799030304E-2,1.332673337E-1
1.171972650E1,8.563613892E-2,-4.825830460E-2,6.296586990E-2,1.167352261E-1
1.172793235E1,9.773111343E-2,-2.920591831E-2,6.277990341E-2,1.197734214E-1
1.173617477E1,9.779644012E-2,-2.683377266E-2,6.987190247E-2,1.231514426E-1
1.174438092E1,7.878303528E-2,-2.438426018E-2,8.885765076E-2,1.212313528E-1
1.175258719E1,9.562397003E-2,-1.472878456E-2,8.877229691E-2,1.313065171E-1
1.176079654E1,9.096813202E-2,-2.665340900E-2,9.340047836E-2,1.330761234E-1
1.176900277E1,9.823656082E-2,-1.965153217E-2,7.408857346E-2,1.246022524E-1
1.177724504E1,9.832668304E-2,-3.166115284E-2,8.353996277E-2,1.328513853E-1
1.178545150E1,1.032924652E-1,-2.200305462E-2,8.332824707E-2,1.345253305E-1
1.179365562E1,9.617710114E-2,-2.467787266E-2,7.120037079E-2,1.221823432E-1
1.180186727E1,6.967973709E-2,-3.203022480E-2,6.418371201E-2,1.000037497E-1
1.181007154E1,8.393669128E-2,-2.739155293E-2,6.668090820E-2,1.106436118E-1
1.181831185E1,9.099388123E-2,-2.277112007E-2,5.961751938E-2,1.111425164E-1
1.182651762E1,8.864498138E-2,-3.243386745E-2,6.193161011E-2,1.128955837E-1
1.183472319E1,1.077609062E-1,-2.293384075E-2,7.632541656E-2,1.340296354E-1
1.184293423E1,1.220488548E-1,-5.649411678E-2,6.923294067E-2,1.512637044E-1
1.185113981E1,1.172418594E-1,-4.944932461E-2,7.879924774E-2,1.496669995E-1
1.185937962E1,1.004991531E-1,-3.529810905E-2,6.675243378E-2,1.257057027E-1
1.186758504E1,1.125030518E-1,-5.434930325E-2,5.715990067E-2,1.373973714E-1
1.187578965E1,1.147913933E-1,-4.020881653E-2,4.766178131E-2,1.306348280E-1
1.188400085E1,1.075382233E-1,-6.189846992E-2,4.771804810E-2,1.329394680E-1
1.189220635E1,9.799575806E-2,-5.243587494E-2,6.200885773E-2,1.272705308E-1
1.190044569E1,9.562587738E-2,-4.770731926E-2,6.675100327E-2,1.259999729E-1
1.190865196E1,1.149206161E-1,-4.304230213E-2,6.653833389E-2,1.395949056E-1
1.191685746E1,9.586858749E-2,-4.080963135E-2,5.678844452E-2,1.186639773E-1
1.192506512E1,1.221656799E-1,-2.437281609E-2,6.154537201E-2,1.389471854E-1
1.193327015E1,1.149702072E-1,-3.646755219E-2,5.195283890E-2,1.313283228E-1
1.194151265E1,1.078181267E-1,-6.988251209E-2,5.193948746E-2,1.385858012E-1
1.194972054E1,1.172914505E-1,-4.358720779E-2,6.164121628E-2,1.394875213E-1
1.195792842E1,1.051921844E-1,-5.573844910E-2,6.655025482E-2,1.363858746E-1
1.196615085E1,9.807157516E-2,-6.059312820E-2,5.687522888E-2,1.285470836E-1
1.197435796E1,1.004228592E-1,-5.320954323E-2,4.979991913E-2,1.240807724E-1
1.198259973E1,1.172528267E-1,-4.382193089E-2,6.881523132E-2,1.428430014E-1
1.199080562E1,1.246004105E-1,-2.708804607E-2,6.141090393E-2,1.415285259E-1
1.199901250E1,1.271376610E-1,-1.534748077E-2,5.877304077E-2,1.409035142E-1
1.200722554E1,1.174860001E-1,1.064813137E-2,6.835985184E-2,1.363429949E-1
1.201543204E1,8.388662338E-2,1.023769379E-3,6.127166748E-2,1.038856627E-1
1.202367715E1,6.928873062E-2,1.134634018E-3,5.920648575E-2,9.114616580E-2
1.203188473E1,7.154130936E-2,-1.518607140E-3,5.693006516E-2,9.144122391E-2
1.204009258E1,8.815431595E-2,-3.264713287E-2,6.669569016E-2,1.152620223E-1
1.204830481E1,9.041738510E-2,-2.310585976E-2,5.728006363E-2,1.094997259E-1
1.205651288E1,1.072196960E-1,-3.969216347E-2,7.642221451E-2,1.375204928E-1
1.206475719E1,1.359844208E-1,-3.955447674E-2,8.598756790E-2,1.656809620E-1
1.207296315E1,1.336350441E-1,-2.026414871E-2,7.399559021E-2,1.540918820E-1
1.208116850E1,1.311106682E-1,-2.507758141E-2,9.091663361E-2,1.615076675E-1
1.208937681E1,1.165833473E-1,-3.226447105E-2,7.436609268E-2,1.419964391E-1
1.209758365E1,1.019949913E-1,-4.433035851E-2,6.984376907E-2,1.313252109E-1
1.210582634E1,8.020162582E-2,-4.676759243E-2,5.099821091E-2,1.059260402E-1
1.211403173E1,8.708858490E-2,-3.706383705E-2,4.662370682E-2,1.055079129E-1
1.212223573E1,9.659337997E-2,-4.172265530E-2,5.393505096E-2,1.182372646E-1
1.213044604E1,8.942937851E-2,-5.810558796E-2,4.442834854E-2,1.155324684E-1
1.213865081E1,1.133551598E-1,-6.500327587E-2,6.367588043E-2,1.453596776E-1
1.214689123E1,1.158223152E-1,-6.729125977E-2,4.924201965E-2,1.427154471E-1
1.215509781E1,1.397824287E-1,-6.225097179E-2,5.407047272E-2,1.622896389E-1
1.216330315E1,1.038813591E-1,-5.467236042E-2,4.936790466E-2,1.273483167E-1
1.217151350E1,1.037154198E-1,-4.509067535E-2,3.761434555E-2,1.191842955E-1
1.217971877E1,9.888935089E-2,-3.539621830E-2,7.360506058E-2,1.282563875E-1
1.218796046E1,1.108193398E-1,-5.926942825E-2,4.733896255E-2,1.342935909E-1
1.219616588E1,1.083703041E-1,-5.438137054E-2,5.940723419E-2,1.350210197E-1
1.220437158E1,1.011285782E-1,-6.143677235E-2,5.472660065E-2,1.303704995E-1
1.221259484E1,1.060504913E-1,-6.104826927E-2,5.704736710E-2,1.350111106E-1
1.222080092E1,1.182060242E-1,-6.332981586E-2,6.880617142E-2,1.507236509E-1
1.222904254E1,1.087684631E-1,-5.341184139E-2,7.828903198E-2,1.442656435E-1
1.223724827E1,1.112761497E-1,-4.853391647E-2,9.252929688E-2,1.526420431E-1
1.224545392E1,9.702491760E-2,-2.469646931E-2,8.277940750E-2,1.299083544E-1
1.225366323E1,8.742427826E-2,-1.996922493E-2,7.321929932E-2,1.157706360E-1
1.226187011E1,6.832790375E-2,-3.671896458E-2,6.357002258E-2,1.002902416E-1
1.227011327E1,9.703063965E-2,-3.438663483E-2,5.640745163E-2,1.173847788E-1
1.227832031E1,1.090583801E-1,-4.409956932E-2,6.587505341E-2,1.348259061E-1
1.228652615E1,1.211500168E-1,-4.169356823E-2,7.290506363E-2,1.474138002E-1
1.229473631E1,1.141157150E-1,-2.720105648E-2,8.710861206E-2,1.461170907E-1
1.230294242E1,1.094803810E-1,-4.639720917E-2,7.014036179E-2,1.380518931E-1
1.231118404E1,1.000070572E-1,-1.773226261E-2,6.759595871E-2,1.220043370E-1
1.231939077E1,1.024551392E-1,-4.179990292E-2,5.791664124E-2,1.248944545E-1
1.232759473E1,1.048779488E-1,-2.056479454E-2,6.258869171E-2,1.238532973E-1
1.233580419E1,9.292793274E-2,-3.034150600E-2,5.532836914E-2,1.123273613E-1
1.234400869E1,1.073236465E-1,-2.340817451E-2,5.762052536E-2,1.240420601E-1
1.235224954E1,7.857608795E-2,-4.039430618E-2,6.955671310E-2,1.124457109E-1
1.236045223E1,1.097927094E-1,-3.786885738E-2,7.425737381E-2,1.378500887E-1
1.236865554E1,1.098423004E-1,-3.091132641E-2,6.934881210E-2,1.335293930E-1
1.237686323E1,1.051263809E-1,-2.122449875E-2,6.928253174E-2,1.276796950E-1
1.238506511E1,1.052589417E-1,-2.836441994E-2,8.109140396E-2,1.358668499E-1
1.239330258E1,1.052427292E-1,-2.377235889E-2,7.148599625E-2,1.294272180E-1
1.240150669E1,9.570932388E-2,-1.662790775E-2,7.620906830E-2,1.234689600E-1
1.240971177E1,8.374023438E-2,-3.598618507E-2,7.615375519E-2,1.187721634E-1
1.241792111E1,8.126020432E-2,-1.238453388E-2,6.420850754E-2,1.043040264E-1
1.242612754E1,9.802436829E-2,-2.454376221E-2,7.612466812E-2,1.265153672E-1
1.243436746E1,9.319877625E-2,-2.730822563E-2,8.086872101E-2,1.263784045E-1
1.244257088E1,9.084844589E-2,-2.484226227E-2,8.082914352E-2,1.241125641E-1
1.245077661E1,1.244268417E-1,-4.415643215E-2,7.592391968E-2,1.523032207E-1
1.245899792E1,1.121511459E-1,-4.208755493E-2,6.665897369E-2,1.370863253E-1
1.246720354E1,1.168475151E-1,-5.171549320E-2,5.718851089E-2,1.399941420E-1
1.247544369E1,1.166963577E-1,-5.412220955E-2,6.696033478E-2,1.450204810E-1
1.248364877E1,9.032344818E-2,-4.215407372E-2,5.503606796E-2,1.138607044E-1
1.249185338E1,1.262402534E-1,-3.255200386E-2,5.264329910E-2,1.405971247E-1
1.250006646E1,1.142468452E-1,-3.022575378E-2,5.983781815E-2,1.324632112E-1
1.250827292E1,1.119942665E-1,-4.930007458E-2,5.248880386E-2,1.331476159E-1
1.251652080E1,1.167993546E-1,-4.934537411E-2,5.485010147E-2,1.381506019E-1
1.252472746E1,1.002264023E-1,-3.225529194E-2,4.990530014E-2,1.165172715E-1
1.253293434E1,9.549236298E-2,-2.733743191E-2,4.507827759E-2,1.090787682E-1
1.254114069E1,1.243185997E-1,-5.114734173E-2,6.893014908E-2,1.510712754E-1
1.254934881E1,1.100401878E-1,-5.335748196E-2,5.210399628E-2,1.329311485E-1
1.255758661E1,9.816074371E-2,-2.469277382E-2,6.633377075E-2,1.210183202E-1
1.256579311E1,1.198287010E-1,-4.622054100E-2,6.139421463E-2,1.423534530E-1
1.257399815E1,1.079916954E-1,-3.885412216E-2,7.323837280E-2,1.361459083E-1
1.258220334E1,1.056284904E-1,-3.157234192E-2,5.646467209E-2,1.238646437E-1
1.259040827E1,9.371280670E-2,-2.701807022E-2,4.675722122E-2,1.081586982E-1
1.259864607E1,1.177759171E-1,-2.462172508E-2,6.575298309E-2,1.371161944E-1
1.260685327E1,1.154260635E-1,-3.897631168E-2,7.048749924E-2,1.407509025E-1
1.261506050E1,1.034851074E-1,-4.132986069E-2,7.045888901E-2,1.318399783E-1
1.262327469E1,8.439350128E-2,-4.601013660E-2,7.279920578E-2,1.205774444E-1
1.263148323E1,9.642553329E-2,-6.028676033E-2,7.513666153E-2,1.363007515E-1
1.263972423E1,9.643697739E-2,-4.841434956E-2,6.312704086E-2,1.250162515E-1
1.264793004E1,1.180467606E-1,-3.160750866E-2,7.263565063E-2,1.421619148E-1
1.265613427E1,1.061935425E-1,-3.405940533E-2,7.725477219E-2,1.356665448E-1
1.266434577E1,1.014633179E-1,-1.738834381E-2,8.434152603E-2,1.330813751E-1
1.267255307E1,8.464860916E-2,8.787274361E-3,6.761169434E-2,1.086919704E-1
1.268079319E1,1.061277390E-1,-1.767122746E-2,6.048870087E-2,1.234271129E-1
1.268899846E1,8.914566040E-2,-3.686821461E-2,7.034254074E-2,1.193913190E-1
1.269720627E1,8.168315887E-2,-2.742004395E-2,6.109666824E-2,1.056257550E-1
1.270543296E1,9.595537186E-2,-2.954018116E-2,7.565164566E-2,1.257108873E-1
1.271364130E1,1.389117241E-1,-5.105531216E-2,6.626224518E-2,1.621536220E-1
1.272188496E1,1.147699356E-1,-2.715694904E-2,9.045219421E-2,1.486312129E-1
1.273009100E1,1.481213570E-1,-2.246999741E-2,8.585548401E-2,1.726731053E-1
1.273829746E1,1.407957077E-1,-3.228902817E-3,8.366966248E-2,1.638122997E-1
1.274650557E1,1.310849190E-1,-1.997852325E-2,6.948089600E-2,1.496996736E-1
1.275471088E1,1.045727730E-1,-1.735877991E-2,4.103565216E-2,1.136693311E-1
1.276295234E1,1.043248177E-1,-4.337620735E-2,4.622602463E-2,1.220737822E-1
1.277115877E1,9.206914902E-2,-2.872800827E-2,4.666805267E-2,1.071444530E-1
1.277936469E1,8.949995041E-2,-3.329634666E-2,4.455709457E-2,1.053765747E-1
1.278757777E1,9.185075760E-2,-2.822208405E-2,5.665588379E-2,1.115479129E-1
1.279578311E1,8.470249176E-2,-1.610863209E-2,5.425500870E-2,1.018705360E-1
1.280402377E1,1.063647270E-1,-3.257751465E-2,6.375598907E-2,1.282169090E-1
1.281222904E1,1.063981056E-1,-4.197251797E-2,6.375837326E-2,1.309480023E-1
1.282043523E1,1.134552956E-1,-4.154527187E-2,7.121324539E-2,1.402477808E-1
1.282864673E1,9.905338287E-2,-5.327773094E-2,6.413888931E-2,1.294754278E-1
1.283685373E1,1.061902046E-1,-5.067181587E-2,6.664419174E-2,1.352236694E-1
1.284509734E1,1.157708168E-1,-5.529284477E-2,6.189441681E-2,1.424468306E-1
1.285330480E1,1.037392616E-1,-3.607714176E-2,6.917095184E-2,1.297999042E-1
1.286151157E1,1.061406136E-1,-5.986559391E-2,6.680727005E-2,1.389709700E-1
1.286972357E1,8.939456940E-2,-6.440305710E-2,4.291105270E-2,1.182391697E-1
1.287792680E1,1.301989555E-1,-3.077471256E-2,5.956697464E-2,1.464482005E-1
1.288616700E1,1.206874847E-1,-4.508423805E-2,6.667613983E-2,1.450646929E-1
1.289437330E1,1.206312180E-1,-4.258918762E-2,5.001497269E-2,1.373580254E-1
1.290257888E1,9.660530090E-2,-3.774762154E-2,5.971479416E-2,1.196800891E-1
1.291078688E1,9.651279449E-2,-3.766739368E-2,5.506515503E-2,1.173274194E-1
1.291899377E1,1.060128212E-1,-2.811360359E-2,4.079627991E-2,1.170189276E-1
1.292723673E1,8.201026917E-2,-3.053057194E-2,4.326295853E-2,9.761907422E-2
1.293544384E1,1.037230492E-1,-6.613516808E-2,6.706905365E-2,1.401092051E-1
1.294365000E1,1.086664200E-1,-5.398738384E-2,8.127784729E-2,1.460449140E-1
1.295186934E1,1.350035667E-1,-5.381524563E-2,8.610820770E-2,1.689279939E-1
1.296007392E1,1.303515434E-1,-2.738654613E-2,7.637834549E-2,1.535421748E-1
1.296831776E1,1.161370277E-1,-3.185927868E-2,8.105087280E-2,1.451622087E-1
1.297652369E1,1.043157578E-1,-2.225565910E-2,8.325815201E-2,1.353107961E-1
1.298472880E1,8.530330658E-2,-2.947080135E-2,6.870126724E-2,1.134241877E-1
1.299294188E1,9.017896652E-2,-5.830895901E-2,5.898284912E-2,1.225200277E-1
1.300114726E1,9.495115280E-2,-6.067526340E-2,6.140518188E-2,1.283269472E-1
1.300938842E1,1.070885658E-1,-2.469682693E-2,5.641841888E-2,1.235351455E-1
1.301759434E1,8.807229996E-2,-2.941775322E-2,7.541084290E-2,1.196199375E-1
1.302580003E1,1.025476456E-1,-3.420436382E-2,7.526874542E-2,1.317244934E-1
1.303401057E1,1.051273346E-1,-3.894352913E-2,7.264661789E-2,1.335884951E-1
1.304221442E1,1.051220894E-1,-7.906079292E-3,7.981395721E-2,1.322249127E-1
1.305045723E1,9.319496155E-2,8.765220642E-3,7.015609741E-2,1.169786645E-1
1.305866130E1,9.791326523E-2,-2.720260620E-2,7.741641998E-2,1.277508958E-1
1.306686600E1,1.001667976E-1,3.865718842E-3,6.322050095E-2,1.185122900E-1
1.307507407E1,8.812856674E-2,-2.966177464E-2,6.809329987E-2,1.152526036E-1
1.308328023E1,1.216239929E-1,-8.199334145E-3,5.852460861E-2,1.352211320E-1
1.309152030E1,1.025671959E-1,-2.019107342E-2,8.233642578E-2,1.330676374E-1
1.309972657E1,9.782314301E-2,-2.978551388E-2,7.987928391E-2,1.297584068E-1
1.310793326E1,1.026287079E-1,-5.384004116E-2,6.785821915E-2,1.342986955E-1
1.311614703E1,1.169638634E-1,-8.564710617E-3,7.023715973E-2,1.367009810E-1
1.312435276E1,9.773159027E-2,-4.220664501E-2,7.270288467E-2,1.289130484E-1
1.313259565E1,1.000223160E-1,-2.318942547E-2,6.801414490E-2,1.231589910E-1
1.314080315E1,9.268140793E-2,-1.709699631E-3,4.904699326E-2,1.048731329E-1
1.314901107E1,1.142215729E-1,-6.595849991E-3,6.579113007E-2,1.319793383E-1
1.315722330E1,1.094312668E-1,-4.984045029E-2,5.857324600E-2,1.337538702E-1
1.316543034E1,1.165981293E-1,-3.798532486E-2,6.335353851E-2,1.380278215E-1
