"Time (s)","Gyroscope x (rad/s)","Gyroscope y (rad/s)","Gyroscope z (rad/s)","Absolute (rad/s)"
4.818731000E-3,-6.780604273E-2,-4.092797264E-2,-1.716531366E-1,1.890437983E-1
7.042818000E-3,-7.696902007E-2,-3.787364438E-2,-1.618792862E-1,1.832035651E-1
8.836731000E-3,-8.368854225E-2,-4.398229718E-2,-1.545489132E-1,1.811727936E-1
1.114831800E-2,-8.674286306E-2,-4.398229718E-2,-1.490511149E-1,1.779747218E-1
1.292815400E-2,-8.857546002E-2,-5.009094998E-2,-1.429424733E-1,1.754630048E-1
1.525297200E-2,-9.407325089E-2,-5.742133409E-2,-1.343903542E-1,1.738037785E-1
1.739912600E-2,-9.834930301E-2,-6.597344577E-2,-1.264491081E-1,1.732468121E-1
1.930058800E-2,-1.014036313E-1,-6.963863969E-2,-1.215621829E-1,1.729439241E-1
2.106107700E-2,-1.044579595E-1,-7.880161703E-2,-1.172861308E-1,1.757190844E-1
2.341320300E-2,-1.117883399E-1,-9.040805697E-2,-1.087340117E-1,1.802590774E-1
2.515292300E-2,-1.130100712E-1,-9.712757170E-2,-1.087340117E-1,1.844671425E-1
2.747535700E-2,-1.203404516E-1,-1.032362282E-1,-1.050688252E-1,1.902077841E-1
2.924934600E-2,-1.270599663E-1,-1.087340117E-1,-9.773843735E-2,1.937011163E-1
3.158028000E-2,-1.374446750E-1,-1.081231460E-1,-9.162978828E-2,1.974276361E-1
3.336869200E-2,-1.404990107E-1,-1.081231460E-1,-8.796459436E-2,1.979099709E-1
3.568454900E-2,-1.563815027E-1,-1.032362282E-1,-8.063421398E-2,2.039969845E-1
3.778558800E-2,-1.692096740E-1,-9.957103431E-2,-7.574728876E-2,2.104375356E-1
3.974774100E-2,-1.875356287E-1,-8.796459436E-2,-7.208210230E-2,2.193244431E-1
4.150088500E-2,-1.973094791E-1,-8.063421398E-2,-6.841690838E-2,2.238610738E-1
4.385989500E-2,-2.156354338E-1,-6.536258012E-2,-6.536258012E-2,2.346128174E-1
4.558950000E-2,-2.345722616E-1,-4.948008433E-2,-6.658431143E-2,2.488089532E-1
4.792170300E-2,-2.419026345E-1,-4.092797264E-2,-6.597344577E-2,2.540560550E-1
4.970692300E-2,-2.638937831E-1,-1.649336144E-2,-6.352998316E-2,2.719338495E-1
5.202631800E-2,-2.828305960E-1,7.941247895E-3,-6.475171447E-2,2.902567725E-1
5.380126900E-2,-3.048217595E-1,4.031710699E-2,-6.047565863E-2,3.133673235E-1
5.613108800E-2,-3.139847219E-1,5.375614017E-2,-6.047565863E-2,3.242428619E-1
5.827689500E-2,-3.335324228E-1,8.735372871E-2,-6.047565863E-2,3.500455060E-1
6.018166400E-2,-3.494149148E-1,1.160643995E-1,-5.742133409E-2,3.726378096E-1
6.193276900E-2,-3.573561609E-1,1.343903542E-1,-5.436700583E-2,3.856422751E-1
6.429389500E-2,-3.689626157E-1,1.661553532E-1,-5.192354694E-2,4.079669937E-1
6.607115400E-2,-3.848451078E-1,1.973094791E-1,-4.825835302E-2,4.351616437E-1
6.835647200E-2,-3.940080702E-1,2.266310006E-1,-4.825835302E-2,4.570917178E-1
7.012896100E-2,-3.982841372E-1,2.382374406E-1,-4.520402849E-2,4.662946882E-1
7.246135700E-2,-4.050036669E-1,2.590068579E-1,-4.337143153E-2,4.826941098E-1
7.446165400E-2,-4.062253833E-1,2.767219543E-1,-4.031710699E-2,4.931729627E-1
7.653312600E-2,-4.080579877E-1,2.913827300E-1,-3.909537569E-2,5.029350505E-1
7.859870300E-2,-4.068362415E-1,2.938261926E-1,-3.726277873E-2,5.032276558E-1
8.056066400E-2,-4.043927789E-1,2.974913716E-1,-3.848451003E-2,5.035034194E-1
8.230334600E-2,-4.025602043E-1,2.932153046E-1,-3.481931984E-2,4.992417430E-1
8.467243400E-2,-4.013384581E-1,2.889392674E-1,-3.481931984E-2,4.957528045E-1
8.640957700E-2,-3.940080702E-1,2.822197378E-1,-2.687807009E-2,4.853995987E-1
8.873358700E-2,-3.885102868E-1,2.663372457E-1,-2.138028294E-2,4.715218849E-1
9.051069200E-2,-3.830125034E-1,2.492330223E-1,-9.773843922E-3,4.570680531E-1
9.284004900E-2,-3.799581826E-1,2.419026345E-1,-2.443460980E-3,4.504343188E-1
9.462176900E-2,-3.695734739E-1,2.241875380E-1,6.719517522E-3,4.323074794E-1
9.694374100E-2,-3.591887653E-1,2.040289938E-1,2.199114859E-2,4.136762140E-1
9.908908700E-2,-3.512475193E-1,1.795943826E-1,3.604105115E-2,3.961412872E-1
1.009898570E-1,-3.451388776E-1,1.685988009E-1,4.031710699E-2,3.862277432E-1
1.027427690E-1,-3.353650272E-1,1.459967941E-1,5.009094998E-2,3.691799949E-1
1.051072030E-1,-3.280346394E-1,1.185078546E-1,6.169738993E-2,3.541996671E-1
1.068283850E-1,-3.274237812E-1,1.044579595E-1,6.597344577E-2,3.499575593E-1
1.091637800E-1,-3.188716471E-1,7.635815442E-2,7.696902007E-2,3.367995326E-1
1.109459230E-1,-3.127630055E-1,4.764748737E-2,8.735372871E-2,3.282097722E-1
1.132682410E-1,-3.103195429E-1,2.565634064E-2,9.468411654E-2,3.254559086E-1
1.150381920E-1,-3.060434759E-1,1.160643995E-2,9.773843735E-2,3.214811358E-1
1.173738570E-1,-3.023782969E-1,-8.552113548E-3,1.050688252E-1,3.202268432E-1
1.194752030E-1,-2.950479090E-1,-2.015855350E-2,1.130100712E-1,3.165926596E-1
1.214362410E-1,-2.932153046E-1,-2.626720630E-2,1.166752651E-1,3.166674888E-1
1.231753080E-1,-2.926044464E-1,-3.481931984E-2,1.246165112E-1,3.199359654E-1
1.255532800E-1,-2.858849466E-1,-3.420845419E-2,1.350012124E-1,3.180027490E-1
1.273044610E-1,-2.803871334E-1,-2.993239649E-2,1.435533315E-1,3.164181599E-1
1.296105870E-1,-2.742784917E-1,-2.504547499E-2,1.472185254E-1,3.122967516E-1
1.313917310E-1,-2.675589919E-1,-1.527163107E-2,1.588249654E-1,3.115227223E-1
1.337153950E-1,-2.553416789E-1,-6.719517522E-3,1.655444801E-1,3.043838034E-1
1.355032310E-1,-2.504547536E-1,-3.054326167E-3,1.704314053E-1,3.029583741E-1
1.378207410E-1,-2.321287990E-1,3.054326167E-3,1.802052408E-1,2.938826927E-1
1.399673180E-1,-2.113593817E-1,0.000000000E0,1.832595766E-1,2.797442772E-1
1.418688560E-1,-1.912008226E-1,-1.038470957E-2,1.875356287E-1,2.680209111E-1
1.436234610E-1,-1.777617931E-1,-1.954768784E-2,1.857030392E-1,2.578119197E-1
1.459863180E-1,-1.582140923E-1,-3.359758854E-2,1.826487035E-1,2.439693543E-1
1.477151540E-1,-1.423316002E-1,-5.497787148E-2,1.795943826E-1,2.356586367E-1
1.500429720E-1,-1.264491081E-1,-7.208210230E-2,1.710422635E-1,2.245899871E-1
1.518282690E-1,-1.227839142E-1,-8.368854225E-2,1.643227488E-1,2.215437371E-1
1.541486260E-1,-1.136209369E-1,-1.062905490E-1,1.533271819E-1,2.184413487E-1
1.559206540E-1,-1.130100712E-1,-1.252273768E-1,1.496619880E-1,2.255036203E-1
1.582533560E-1,-1.142318025E-1,-1.331686229E-1,1.466076523E-1,2.286407456E-1
1.603540870E-1,-1.209513173E-1,-1.429424733E-1,1.368338168E-1,2.319165049E-1
1.622895870E-1,-1.295034289E-1,-1.466076523E-1,1.343903542E-1,2.373303797E-1
1.640235770E-1,-1.411098689E-1,-1.435533315E-1,1.276708394E-1,2.383681970E-1
1.664081640E-1,-1.490511149E-1,-1.380555481E-1,1.258382350E-1,2.389787242E-1
1.681478850E-1,-1.563815027E-1,-1.172861308E-1,1.178969890E-1,2.282781437E-1
1.704666260E-1,-1.679879427E-1,-8.552113175E-2,1.123992056E-1,2.194707139E-1
1.722373080E-1,-1.698205322E-1,-7.147123665E-2,1.069014147E-1,2.130142326E-1
1.745747790E-1,-1.716531366E-1,-3.054326214E-2,9.896016866E-2,2.004764454E-1
1.763665380E-1,-1.728748679E-1,1.404990070E-2,9.162978828E-2,1.961609996E-1
1.786802790E-1,-1.679879427E-1,5.681046844E-2,7.696902007E-2,1.933173770E-1
1.808263950E-1,-1.588249654E-1,8.368854225E-2,6.963863969E-2,1.925582558E-1
1.827284720E-1,-1.533271819E-1,1.374446750E-1,5.619960278E-2,2.134447440E-1
1.845350770E-1,-1.362229437E-1,1.942551434E-1,4.337143153E-2,2.411904480E-1
1.868475490E-1,-1.197295859E-1,2.553416789E-1,2.809980139E-2,2.834151470E-1
1.885690380E-1,-1.099557430E-1,2.840523422E-1,2.260201424E-2,3.054289599E-1
1.909058560E-1,-9.040805697E-2,3.396410644E-1,2.443460980E-3,3.514763717E-1
1.927402310E-1,-6.597344577E-2,3.921754956E-1,-1.893682219E-2,3.981365572E-1
1.950119330E-1,-5.436700583E-2,4.141666293E-1,-2.809980139E-2,4.186637875E-1
1.967806920E-1,-3.176499158E-2,4.587597847E-1,-5.009094998E-2,4.625782723E-1
1.991171640E-1,-1.038470957E-2,4.996877611E-1,-7.208210230E-2,5.049668605E-1
2.012190100E-1,1.282817032E-2,5.351179838E-1,-9.040805697E-2,5.428530513E-1
2.031819330E-1,2.260201424E-2,5.497786999E-1,-1.020144969E-1,5.596198955E-1
2.049379610E-1,4.520402849E-2,5.766568184E-1,-1.197295859E-1,5.906874505E-1
2.073012410E-1,7.147123665E-2,6.004805565E-1,-1.313360333E-1,6.188167661E-1
2.090962690E-1,9.407325089E-2,6.090326309E-1,-1.362229437E-1,6.311316918E-1
2.113600870E-1,1.032362282E-1,6.249151230E-1,-1.478293836E-1,6.504076848E-1
2.131290770E-1,1.258382350E-1,6.383541822E-1,-1.539380401E-1,6.686017077E-1
2.154663950E-1,1.459967941E-1,6.456845403E-1,-1.606575549E-1,6.812007335E-1
2.172464230E-1,1.551597714E-1,6.511823535E-1,-1.594358236E-1,6.881371913E-1
2.195718180E-1,1.704314053E-1,6.560692787E-1,-1.569923609E-1,6.957875852E-1
2.217178560E-1,1.820378453E-1,6.572909951E-1,-1.533271819E-1,6.990554013E-1
2.236203560E-1,1.918116808E-1,6.499606371E-1,-1.478293836E-1,6.936094559E-1
2.253610770E-1,1.954768747E-1,6.456845403E-1,-1.429424733E-1,6.896029907E-1
2.277380100E-1,2.034181207E-1,6.273586154E-1,-1.319468915E-1,6.725828918E-1
2.294619230E-1,2.028072625E-1,6.029239893E-1,-1.154535338E-1,6.465119033E-1
2.317945100E-1,2.028072625E-1,5.888741016E-1,-1.081231460E-1,6.321345648E-1
2.335787690E-1,1.991420686E-1,5.571091175E-1,-8.796459436E-2,5.981353544E-1
2.358984710E-1,1.924225539E-1,5.204572082E-1,-6.963863969E-2,5.592420629E-1
2.376696540E-1,1.838704348E-1,4.813618064E-1,-5.070181563E-2,5.177723434E-1
2.400028560E-1,1.795943826E-1,4.642575979E-1,-4.214970022E-2,4.995656681E-1
2.421036640E-1,1.710422635E-1,4.245513380E-1,-2.321287990E-2,4.582991733E-1
2.440657410E-1,1.649336219E-1,3.885102868E-1,-3.054326167E-3,4.220813565E-1
2.458285000E-1,1.557706445E-1,3.524692357E-1,1.893682219E-2,3.858207602E-1
2.481820870E-1,1.521054506E-1,3.329215646E-1,2.871066704E-2,3.671472983E-1
2.499186540E-1,1.429424733E-1,3.042109013E-1,4.581489414E-2,3.392282825E-1
2.522382790E-1,1.374446750E-1,2.809980214E-1,6.475171447E-2,3.194428137E-1
2.540134230E-1,1.343903542E-1,2.730567753E-1,7.391469181E-2,3.131838941E-1
2.563442020E-1,1.331686229E-1,2.553416789E-1,8.979719132E-2,3.016567431E-1
2.581311150E-1,1.362229437E-1,2.461786866E-1,1.032362282E-1,2.996971053E-1
2.604484330E-1,1.368338168E-1,2.443460971E-1,1.160643995E-1,3.031492263E-1
2.625940100E-1,1.411098689E-1,2.394591719E-1,1.209513173E-1,3.031202917E-1
2.644960480E-1,1.472185254E-1,2.443460971E-1,1.331686229E-1,3.148208880E-1
2.662570770E-1,1.563815027E-1,2.455678284E-1,1.392772794E-1,3.227334710E-1
2.686125100E-1,1.643227488E-1,2.455678284E-1,1.441642046E-1,3.287686755E-1
2.703451150E-1,1.698205322E-1,2.486221492E-1,1.472185254E-1,3.351496389E-1
2.726679330E-1,1.808161139E-1,2.547308207E-1,1.508837193E-1,3.469123157E-1
2.744575770E-1,1.899790913E-1,2.602286041E-1,1.459967941E-1,3.537316008E-1
2.767709330E-1,1.954768747E-1,2.632829249E-1,1.478293836E-1,3.596979757E-1
2.785411540E-1,2.076941878E-1,2.657263875E-1,1.392772794E-1,3.648911470E-1
2.808741250E-1,2.229658216E-1,2.669481039E-1,1.331686229E-1,3.724364777E-1
2.829741640E-1,2.327396572E-1,2.693915665E-1,1.233947799E-1,3.767835397E-1
2.849350480E-1,2.388483137E-1,2.681698501E-1,1.197295859E-1,3.785482257E-1
2.867723460E-1,2.547308207E-1,2.663372457E-1,1.130100712E-1,3.854796955E-1
2.890522020E-1,2.718350291E-1,2.620611787E-1,1.062905490E-1,3.922601500E-1
2.907967310E-1,2.803871334E-1,2.571742535E-1,1.001819000E-1,3.934360867E-1
2.931090480E-1,2.974913716E-1,2.541199327E-1,9.529497474E-2,4.026899410E-1
2.949089230E-1,3.121521473E-1,2.431243658E-1,8.979719132E-2,4.057239898E-1
2.972140480E-1,3.310889602E-1,2.296853364E-1,8.124507964E-2,4.110669243E-1
2.989991540E-1,3.384193480E-1,2.211332172E-1,7.880161703E-2,4.118704283E-1
3.013185100E-1,3.543018401E-1,2.046398520E-1,7.391469181E-2,4.157771574E-1
3.034642790E-1,3.640756905E-1,1.850921661E-1,7.269296050E-2,4.148427230E-1
3.053656250E-1,3.732386529E-1,1.594358236E-1,6.902777404E-2,4.116937059E-1
3.071205770E-1,3.799581826E-1,1.496619880E-1,6.658431143E-2,4.137637027E-1
3.094822020E-1,3.866777122E-1,1.270599663E-1,6.352998316E-2,4.119465341E-1
3.112106150E-1,3.940080702E-1,1.032362282E-1,6.047565863E-2,4.117734614E-1
3.135385480E-1,3.915646076E-1,9.162978828E-2,5.681046844E-2,4.061358016E-1
3.153698070E-1,3.952298164E-1,6.780604273E-2,5.070181563E-2,4.041966617E-1
3.176423560E-1,3.958406746E-1,5.070181563E-2,4.398229718E-2,4.014909168E-1
3.196620000E-1,3.958406746E-1,3.359758854E-2,3.848451003E-2,3.991236590E-1
3.217141250E-1,3.982841372E-1,2.748893574E-2,3.237585723E-2,4.005422471E-1
3.237805480E-1,4.013384581E-1,1.588249579E-2,2.504547499E-2,4.024327117E-1
3.257430480E-1,4.037819207E-1,7.330383174E-3,1.160643995E-2,4.040152020E-1
3.274857310E-1,4.062253833E-1,4.886921961E-3,7.941247895E-3,4.063323854E-1
3.298602790E-1,4.166100919E-1,1.832595794E-3,-3.665191587E-3,4.166302446E-1
3.316448840E-1,4.263839424E-1,0.000000000E0,-1.282817032E-2,4.265768726E-1
3.339163560E-1,4.453207552E-1,4.886921961E-3,-2.382374369E-2,4.459843358E-1
3.357024610E-1,4.550946057E-1,6.719517522E-3,-2.993239649E-2,4.561273949E-1
3.380226630E-1,4.783074856E-1,1.282817032E-2,-4.214970022E-2,4.803323953E-1
3.397939230E-1,5.057964325E-1,2.321287990E-2,-5.314527452E-2,5.091102917E-1
3.421260480E-1,5.369505286E-1,3.543018550E-2,-6.780604273E-2,5.423733287E-1
3.442715090E-1,5.546656251E-1,4.642575979E-2,-7.269296050E-2,5.613319636E-1
3.461730480E-1,5.907067060E-1,6.475171447E-2,-8.491026610E-2,6.002807263E-1
3.479074230E-1,6.291912198E-1,8.857546002E-2,-1.007927656E-1,6.433400227E-1
3.502908170E-1,6.469063163E-1,1.020144969E-1,-1.081231460E-1,6.637660388E-1
3.520193460E-1,6.866125464E-1,1.282816976E-1,-1.166752651E-1,7.081709542E-1
3.543459330E-1,7.257078886E-1,1.582140923E-1,-1.313360333E-1,7.542763368E-1
3.561191920E-1,7.721336484E-1,1.930334121E-1,-1.435533315E-1,8.087396541E-1
3.584497020E-1,7.910705209E-1,2.162462920E-1,-1.490511149E-1,8.335294012E-1
3.603110770E-1,8.417723179E-1,2.577851415E-1,-1.637118906E-1,8.954526215E-1
3.625541630E-1,8.900306821E-1,3.097086847E-1,-1.783726513E-1,9.591094240E-1
3.646545480E-1,9.437867999E-1,3.567453027E-1,-1.942551434E-1,1.027490046E0
3.666168940E-1,9.706648588E-1,3.799581826E-1,-2.028072625E-1,1.061927151E0
3.683611150E-1,1.031140566E0,4.282165468E-1,-2.199114859E-1,1.137972469E0
3.707334320E-1,1.091616154E0,4.703662395E-1,-2.382374406E-1,1.212281859E0
3.724541540E-1,1.125824690E0,4.935791194E-1,-2.498438805E-1,1.254401668E0
3.747892020E-1,1.186911225E0,5.332853794E-1,-2.669481039E-1,1.328312028E0
3.765696540E-1,1.251052022E0,5.656611919E-1,-2.883284092E-1,1.402938708E0
3.788936250E-1,1.316414595E0,5.913175344E-1,-3.097086847E-1,1.475982141E0
3.807008840E-1,1.350012183E0,6.004805565E-1,-3.231477141E-1,1.512459665E0
3.829978940E-1,1.416596532E0,6.120869517E-1,-3.420845270E-1,1.580638477E0
3.851435480E-1,1.480737329E0,6.145304441E-1,-3.579670191E-1,1.642671936E0
3.870451250E-1,1.513724089E0,6.108652353E-1,-3.677408695E-1,1.673245439E0
3.887748460E-1,1.580308437E0,6.017022729E-1,-3.787364662E-1,1.732876710E0
3.911612790E-1,1.642005801E0,5.791002512E-1,-3.940080702E-1,1.785156159E0
3.928793460E-1,1.701259732E0,5.485569835E-1,-4.043927789E-1,1.832684632E0
3.952173170E-1,1.729970336E0,5.345070958E-1,-4.086688459E-1,1.856207269E0
3.969864610E-1,1.780061364E0,4.954117239E-1,-4.227187634E-1,1.895453083E0
3.993216250E-1,1.828319669E0,4.544837475E-1,-4.312708676E-1,1.932693160E0
4.010906150E-1,1.849089146E0,4.392121136E-1,-4.361577928E-1,1.949941427E0
4.034260480E-1,1.885740995E0,4.031710625E-1,-4.416555762E-1,1.978288567E0
4.055270480E-1,1.916284323E0,3.799581826E-1,-4.440990388E-1,2.003431502E0
4.074630860E-1,1.942551494E0,3.714060783E-1,-4.440990388E-1,2.026986122E0
4.092095000E-1,1.949270964E0,3.769038618E-1,-4.434881806E-1,2.034304691E0
4.115805860E-1,1.960266590E0,3.995058835E-1,-4.453207552E-1,2.049526928E0
4.133129610E-1,1.965764403E0,4.471533597E-1,-4.434881806E-1,2.064184484E0
4.156376250E-1,1.964542627E0,5.131267905E-1,-4.459316432E-1,2.078841473E0
4.174091540E-1,1.963320851E0,5.564982295E-1,-4.428772926E-1,2.088171291E0
4.197447020E-1,1.959044814E0,6.469063163E-1,-4.447098970E-1,2.110476548E0
4.215211920E-1,1.959044814E0,7.330383062E-1,-4.434881806E-1,2.138196321E0
4.238489710E-1,1.958433986E0,7.812966704E-1,-4.392121136E-1,2.153786304E0
4.259953170E-1,1.965153456E0,8.765916228E-1,-4.337143302E-1,2.195073825E0
4.278975480E-1,1.969429493E0,9.535606503E-1,-4.178318381E-1,2.227670058E0
4.296868840E-1,1.985922933E0,1.014647126E0,-3.988949955E-1,2.265505662E0
4.320144710E-1,1.993253350E0,1.040303469E0,-3.885102868E-1,2.281716562E0
4.337345380E-1,2.015855312E0,1.073290229E0,-3.659082949E-1,2.312901519E0
4.360709710E-1,2.043344259E0,1.091005325E0,-3.353650272E-1,2.340516627E0
4.378498070E-1,2.056783199E0,1.098946571E0,-3.219259977E-1,2.354076686E0
4.401757400E-1,2.086715698E0,1.091616154E0,-2.944370508E-1,2.373331289E0
4.419516540E-1,2.119091511E0,1.081842303E0,-2.742784917E-1,2.395028244E0
4.442798940E-1,2.150245667E0,1.056185961E0,-2.590068579E-1,2.409599503E0
4.463808550E-1,2.163684607E0,1.039081812E0,-2.504547536E-1,2.413286073E0
4.483419710E-1,2.190562725E0,1.010371089E0,-2.333505303E-1,2.423606251E0
4.500850770E-1,2.210110426E0,9.743300676E-1,-2.180788964E-1,2.425173309E0
4.524591630E-1,2.223549604E0,9.382890463E-1,-2.113593817E-1,2.422649782E0
4.541882300E-1,2.228436470E0,9.187413454E-1,-2.064724565E-1,2.419224181E0
4.565157400E-1,2.232712507E0,8.735373020E-1,-2.052507252E-1,2.406283528E0
4.582838840E-1,2.225992918E0,8.283332586E-1,-2.052507252E-1,2.383969026E0
4.606201630E-1,2.221716881E0,7.996225953E-1,-2.083050460E-1,2.370403591E0
4.623948070E-1,2.207056046E0,7.452555895E-1,-2.193006277E-1,2.339785257E0
4.647242780E-1,2.184454203E0,6.872233748E-1,-2.278527319E-1,2.301311148E0
4.668695470E-1,2.154521704E0,6.224716902E-1,-2.400700450E-1,2.255453037E0
4.687707780E-1,2.133752346E0,5.864306092E-1,-2.510656118E-1,2.227068449E0
4.705095000E-1,2.092824221E0,5.210680366E-1,-2.663372457E-1,2.173099318E0
4.728867400E-1,2.047620296E0,4.612032473E-1,-2.852740586E-1,2.118215901E0
4.746123840E-1,2.020742178E0,4.331034720E-1,-2.926044464E-1,2.087245776E0
4.769424710E-1,1.971873045E0,3.830125034E-1,-3.133738637E-1,2.033023625E0
4.787173460E-1,1.912619114E0,3.353650272E-1,-3.323107064E-1,1.970028422E0
4.810467780E-1,1.850310802E0,2.962696552E-1,-3.488040566E-1,1.906066642E0
4.828153840E-1,1.820378423E0,2.773328125E-1,-3.634648323E-1,1.876911765E0
4.851518940E-1,1.759902716E0,2.425135076E-1,-3.799581826E-1,1.816710927E0
4.872532010E-1,1.704313993E0,1.966986060E-1,-4.062253833E-1,1.763064262E0
4.892161630E-1,1.644449234E0,1.380555481E-1,-4.312708676E-1,1.705657404E0
4.909658460E-1,1.623068929E0,1.081231460E-1,-4.447098970E-1,1.686360061E0
4.933332400E-1,1.567480206E0,4.825835302E-2,-4.667010605E-1,1.636194654E0
4.951449230E-1,1.525941372E0,-2.199114859E-2,-4.825835526E-1,1.600583508E0
4.973898940E-1,1.505782843E0,-5.681046844E-2,-4.856378734E-1,1.583178304E0
4.991824230E-1,1.474017859E0,-1.441642046E-1,-4.844161272E-1,1.558258948E0
5.014965470E-1,1.442863703E0,-2.638937831E-1,-4.825835526E-1,1.544144578E0
5.034172690E-1,1.415374756E0,-4.111123085E-1,-4.795292318E-1,1.549918486E0
5.056003550E-1,1.404990077E0,-4.917465150E-1,-4.789183438E-1,1.563705385E0
5.077465470E-1,1.379944563E0,-6.658431292E-1,-4.801400900E-1,1.605655186E0
5.096485470E-1,1.362840414E0,-8.546004891E-1,-4.905247986E-1,1.681752232E0
5.113952300E-1,1.347568750E0,-9.480628371E-1,-5.021312237E-1,1.722469287E0
5.137651630E-1,1.317025423E0,-1.133765936E0,-5.345070958E-1,1.818152633E0
5.154920770E-1,1.274875760E0,-1.305419087E0,-5.803219676E-1,1.914732562E0
5.178217010E-1,1.230282545E0,-1.455691934E0,-6.456845403E-1,2.012347552E0
5.196054610E-1,1.205237150E0,-1.523497939E0,-6.847799420E-1,2.059749045E0
5.219247780E-1,1.160643935E0,-1.643838406E0,-7.678576112E-1,2.153811589E0
5.236949610E-1,1.123381138E0,-1.737300754E0,-8.564330935E-1,2.239124100E0
5.260289320E-1,1.094670534E0,-1.807550311E0,-9.425650835E-1,2.313864871E0
5.281292780E-1,1.086729288E0,-1.835650086E0,-9.859365225E-1,2.350034598E0
5.300935860E-1,1.080009699E0,-1.880243182E0,-1.071457624E0,2.418627052E0
5.318306530E-1,1.084896684E0,-1.900401831E0,-1.147815824E0,2.471034014E0
5.342105470E-1,1.090394497E0,-1.904066920E0,-1.182635069E0,2.492600390E0
5.359844230E-1,1.115439892E0,-1.908343077E0,-1.247386813E0,2.538100335E0
5.382678160E-1,1.147204876E0,-1.911397338E0,-1.301142931E0,2.581180299E0
5.400447690E-1,1.186911225E0,-1.916895151E0,-1.342681766E0,2.624126445E0
5.423733160E-1,1.205237150E0,-1.921171188E0,-1.364672899E0,2.646852366E0
5.441852300E-1,1.249219418E0,-1.940108061E0,-1.399492264E0,2.698730634E0
5.464771240E-1,1.285260439E0,-1.964542627E0,-1.429424644E0,2.748559066E0
5.486228550E-1,1.321912408E0,-1.996918440E0,-1.450804949E0,2.799994762E0
5.505255090E-1,1.337184072E0,-2.018909693E0,-1.461800575E0,2.828589491E0
5.522933840E-1,1.364062071E0,-2.056172371E0,-1.477683067E0,2.876118461E0
5.546423930E-1,1.388496757E0,-2.084882975E0,-1.484402537E0,2.911719621E0
5.564101150E-1,1.398270488E0,-2.093435287E0,-1.480737329E0,2.920653128E0
5.586990090E-1,1.416596532E0,-2.095267773E0,-1.460578799E0,2.920647737E0
5.605102300E-1,1.420872569E0,-2.083050489E0,-1.418429136E0,2.893081301E0
5.628033550E-1,1.426981211E0,-2.052507162E0,-1.360396862E0,2.846004330E0
5.649008840E-1,1.434922457E0,-2.018909693E0,-1.328021049E0,2.810451692E0
5.668753930E-1,1.444696307E0,-1.998140216E0,-1.317025423E0,2.795401171E0
5.689413160E-1,1.464854836E0,-1.957212210E0,-1.279151797E0,2.759113743E0
5.709040470E-1,1.472796082E0,-1.941940665E0,-1.250441194E0,2.739318351E0
5.728855000E-1,1.481348276E0,-1.904677868E0,-1.187522054E0,2.689312017E0
5.750202010E-1,1.486845970E0,-1.863139033E0,-1.118494272E0,2.633064267E0
5.768858070E-1,1.484402537E0,-1.833206654E0,-1.050077319E0,2.582006953E0
5.790765860E-1,1.478904724E0,-1.814269781E0,-1.021366715E0,2.553805785E0
5.809285380E-1,1.470352650E0,-1.783726573E0,-9.663888216E-1,2.505498904E0
5.831832780E-1,1.453248382E0,-1.762957096E0,-9.407324791E-1,2.470814881E0
5.850078070E-1,1.443474531E0,-1.756237626E0,-9.395107627E-1,2.459810927E0
5.872876620E-1,1.434922457E0,-1.753183246E0,-9.535606503E-1,2.458034146E0
5.894331240E-1,1.426981211E0,-1.763567924E0,-9.853256345E-1,2.473320401E0
5.913344320E-1,1.418429136E0,-1.777006984E0,-1.028697014E0,2.495578607E0
5.931360000E-1,1.413542151E0,-1.786780834E0,-1.051299095E0,2.509166585E0
5.954516240E-1,1.404990077E0,-1.800830722E0,-1.092837930E0,2.532051174E0
5.972318070E-1,1.392161846E0,-1.816713214E0,-1.134987593E0,2.554752110E0
5.995082780E-1,1.381777167E0,-1.829541445E0,-1.169196129E0,2.573625774E0
6.013218460E-1,1.375057697E0,-1.837482691E0,-1.189354658E0,2.584896674E0
6.036118550E-1,1.365283847E0,-1.856419444E0,-1.227228284E0,2.610820253E0
6.054468460E-1,1.363451242E0,-1.886962771E0,-1.272432327E0,2.653057070E0
6.077160470E-1,1.367116451E0,-1.915062547E0,-1.296866894E0,2.686696055E0
6.098156620E-1,1.382387996E0,-1.973094702E0,-1.348790407E0,2.761038724E0
6.117782780E-1,1.401324868E0,-2.034181356E0,-1.398881435E0,2.838745224E0
6.137369230E-1,1.430646420E0,-2.108095884E0,-1.454470158E0,2.933649753E0
6.158950850E-1,1.448972344E0,-2.152689219E0,-1.478904724E0,2.986762613E0
6.176785380E-1,1.485624313E0,-2.240042925E0,-1.519832730E0,3.087841225E0
6.199512780E-1,1.522276163E0,-2.319455385E0,-1.553430319E0,3.179676675E0
6.217773070E-1,1.558317184E0,-2.397646189E0,-1.589471340E0,3.271617159E0
6.240545850E-1,1.580308437E0,-2.430632830E0,-1.609019041E0,3.315764314E0
6.259330000E-1,1.621236324E0,-2.491719246E0,-1.656666517E0,3.403177334E0
6.281573550E-1,1.665218711E0,-2.561357975E0,-1.803274155E0,3.547577442E0
6.303029700E-1,1.712866187E0,-2.618168354E0,-1.959655762E0,3.691743058E0
6.322045470E-1,1.742798567E0,-2.641381264E0,-2.036013842E0,3.762923622E0
6.340031150E-1,1.802052498E0,-2.671313763E0,-2.209499598E0,3.907070372E0
6.363207390E-1,1.860695481E0,-2.673146248E0,-2.367713690E0,4.026657007E0
6.381135760E-1,1.891849637E0,-2.667648554E0,-2.444071770E0,4.082760178E0
6.403767390E-1,1.949881911E0,-2.652376890E0,-2.591901302E0,4.189880069E0
6.422160380E-1,2.007914066E0,-2.638326883E0,-2.736065388E0,4.298667404E0
6.444802780E-1,2.038457394E0,-2.630996704E0,-2.806925774E0,4.353881544E0
6.464520760E-1,2.089770079E0,-2.613892317E0,-2.937650919E0,4.453017510E0
6.485839700E-1,2.138028383E0,-2.598620653E0,-3.051882744E0,4.542904682E0
6.506843160E-1,2.183232307E0,-2.577240467E0,-3.162449360E0,4.627067936E0
6.526188160E-1,2.199114799E0,-2.550362349E0,-3.216816425E0,4.657076543E0
6.544342690E-1,2.191173553E0,-2.426967621E0,-3.327383041E0,4.665071412E0
6.567346240E-1,2.160630465E0,-2.116647959E0,-3.444669008E0,4.584132106E0
6.585080380E-1,2.124589205E0,-1.876578093E0,-3.500868797E0,4.504609524E0
6.607902010E-1,1.939497113E0,-1.372003317E0,-3.599218130E0,4.312587773E0
6.627415760E-1,1.742798567E0,-7.880161405E-1,-3.687182665E0,4.153749184E0
6.648960470E-1,1.561371565E0,-1.423316002E-1,-3.754988670E0,4.069161998E0
6.667268070E-1,1.480126500E0,1.966986060E-1,-3.791029692E0,4.074477994E0
6.690002390E-1,1.302364707E0,8.778133392E-1,-3.831346750E0,4.140764182E0
6.711464310E-1,1.136820197E0,1.506393671E0,-3.852727175E0,4.290115236E0
6.730483540E-1,9.944885969E-1,2.058615923E0,-3.860057592E0,4.486307134E0
6.747978070E-1,9.248499870E-1,2.302350998E0,-3.860057592E0,4.588704854E0
6.771656240E-1,8.155050874E-1,2.715296030E0,-3.871663809E0,4.798714591E0
6.789301530E-1,7.086036801E-1,3.033556700E0,-3.897320271E0,4.989357746E0
6.812209700E-1,6.731734872E-1,3.149010420E0,-3.910148382E0,5.065440705E0
6.830326150E-1,5.974262357E-1,3.327993870E0,-3.955352545E0,5.203582906E0
6.853245850E-1,5.442809463E-1,3.437949657E0,-3.998112917E0,5.301004291E0
6.873283070E-1,4.984660447E-1,3.494760036E0,-4.029878139E0,5.357399922E0
6.894284310E-1,4.776966274E-1,3.494149208E0,-4.042095184E0,5.364308551E0
6.915285470E-1,4.153883755E-1,3.401297569E0,-4.068362713E0,5.319111563E0
6.934908160E-1,3.475823104E-1,3.221703291E0,-4.090353489E0,5.218350048E0
6.953360380E-1,3.152064681E-1,3.100751877E0,-4.100738525E0,5.150735265E0
6.976077390E-1,2.260201424E-1,2.798984528E0,-4.108068943E0,4.976105900E0
6.994189610E-1,1.246165112E-1,2.459343433E0,-4.094018936E0,4.777540209E0
7.016633930E-1,-1.099557430E-2,2.100765467E0,-4.073860168E0,4.583630997E0
7.035217300E-1,-6.719517708E-2,1.915062547E0,-4.058588505E0,4.488220182E0
7.057670080E-1,-2.199114859E-1,1.530828357E0,-4.012773991E0,4.300482719E0
7.076445000E-1,-3.775147200E-1,1.125213742E0,-3.960850239E0,4.134846786E0
7.098716230E-1,-5.412266254E-1,7.446447611E-1,-3.897320271E0,4.004563318E0
7.120169310E-1,-6.255260110E-1,5.674937963E-1,-3.856392384E0,3.947796121E0
7.139185470E-1,-7.996225953E-1,2.260201424E-1,-3.770260334E0,3.860744020E0
7.157286920E-1,-9.743300676E-1,-1.172861308E-1,-3.657860994E0,3.787218263E0
7.180354700E-1,-1.156367898E0,-2.877175212E-1,-3.595552921E0,3.787871288E0
7.198223460E-1,-1.247997642E0,-6.261368990E-1,-3.458108187E0,3.729350850E0
7.220920080E-1,-1.431257248E0,-9.560040832E-1,-3.309056997E0,3.729919480E0
7.239481920E-1,-1.603521228E0,-1.259604096E0,-3.149621248E0,3.752065673E0
7.261965460E-1,-1.681101203E0,-1.394605398E0,-3.070819616E0,3.768415925E0
7.280523840E-1,-1.822821856E0,-1.641394973E0,-2.905275106E0,3.802299359E0
7.303012390E-1,-1.938275456E0,-1.852754235E0,-2.737898111E0,3.832192071E0
7.324021230E-1,-2.048841953E0,-2.023185730E0,-2.576018810E0,3.863535526E0
7.343646230E-1,-2.082439661E0,-2.099543810E0,-2.494162798E0,3.868525199E0
7.361592690E-1,-2.161852121E0,-2.238210201E0,-2.337781191E0,3.892095887E0
7.384819310E-1,-2.224160433E0,-2.372600555E0,-2.182621479E0,3.916626041E0
7.403982300E-1,-2.249816656E0,-2.430632830E0,-2.106874228E0,3.925375135E0
7.425384310E-1,-2.290133715E0,-2.540588617E0,-1.962710023E0,3.943543278E0
7.444386150E-1,-2.337781191E0,-2.647490025E0,-1.822211027E0,3.974276960E0
7.466450080E-1,-2.384817839E0,-2.747671843E0,-1.685988069E0,4.009939207E0
7.484938070E-1,-2.406809092E0,-2.789210796E0,-1.621847272E0,4.025272096E0
7.507492770E-1,-2.437963247E0,-2.858238459E0,-1.495398164E0,4.043440064E0
7.528950850E-1,-2.483167171E0,-2.934596539E0,-1.375668526E0,4.082945008E0
7.547966620E-1,-2.481945515E0,-2.958420277E0,-1.318858027E0,4.080648302E0
7.567968160E-1,-2.519208193E0,-3.018285275E0,-1.203404546E0,4.111525072E0
7.589137390E-1,-2.554638386E0,-3.070208788E0,-1.091005325E0,4.140368571E0
7.608174610E-1,-2.583349228E0,-3.116634369E0,-9.859365225E-1,4.166434189E0
7.629697000E-1,-2.602896690E0,-3.128851891E0,-9.327912331E-1,4.175510127E0
7.648018840E-1,-2.631607533E0,-3.138014793E0,-8.381071091E-1,4.180301254E0
7.670726620E-1,-2.661539793E0,-3.137403965E0,-7.544185519E-1,4.182851308E0
7.691073160E-1,-2.693304777E0,-3.117245436E0,-6.682865620E-1,4.173453804E0
7.711762390E-1,-2.696359158E0,-3.100141048E0,-6.279694438E-1,4.156389401E0
7.732769690E-1,-2.735454559E0,-3.075095654E0,-5.516113043E-1,4.152493222E0
7.752382390E-1,-2.764165163E0,-3.018285275E0,-4.789183438E-1,4.120681719E0
7.770511530E-1,-2.782491207E0,-2.990185261E0,-4.453207552E-1,4.108743821E0
7.793554310E-1,-2.833803892E0,-2.932764053E0,-3.787364662E-1,4.095728360E0
7.811691920E-1,-2.880229712E0,-2.858238459E0,-3.090978265E-1,4.069495269E0
7.834125850E-1,-2.920546770E0,-2.781269550E0,-2.370157093E-1,4.039954232E0
7.854057690E-1,-2.945592165E0,-2.740952253E0,-1.991420686E-1,4.028522064E0
7.875170460E-1,-2.998126507E0,-2.665205002E0,-1.246165112E-1,4.013428650E0
7.893556530E-1,-3.036000252E0,-2.580905676E0,-5.375614017E-2,3.985130030E0
7.916211620E-1,-3.079371691E0,-2.497828007E0,1.343903504E-2,3.965079491E0
7.937673540E-1,-3.097086906E0,-2.450791359E0,4.581489414E-2,3.949737282E0
7.956688920E-1,-3.130073547E0,-2.351831198E0,1.087340117E-1,3.916668671E0
7.976690460E-1,-3.156340837E0,-2.251038313E0,1.618792862E-1,3.880188896E0
7.997866620E-1,-3.164892912E0,-2.194227934E0,1.887573600E-1,3.855750603E0
8.015599610E-1,-3.177721024E0,-2.085494041E0,2.376265824E-1,3.808367458E0
8.038440460E-1,-3.185051441E0,-1.966986060E0,2.748893499E-1,3.753551784E0
8.057523070E-1,-3.177110195E0,-1.844202161E0,3.139847219E-1,3.686963142E0
8.079492380E-1,-3.179553509E0,-1.786170006E0,3.268128932E-1,3.661525703E0
8.100083070E-1,-3.166725397E0,-1.662164330E0,3.536909819E-1,3.593888884E0
8.120225850E-1,-3.145956039E0,-1.528384805E0,3.830125034E-1,3.518479514E0
8.140890850E-1,-3.134960413E0,-1.454470158E0,4.019493461E-1,3.479227430E0
8.160517770E-1,-3.104417086E0,-1.293812633E0,4.251621962E-1,3.390002871E0
8.178579230E-1,-3.052493572E0,-1.108109593E0,4.550946057E-1,3.279136316E0
8.201688540E-1,-2.982855082E0,-8.949176073E-1,4.789183438E-1,3.150819694E0
8.221124990E-1,-2.935207605E0,-7.709119320E-1,4.850270152E-1,3.073271888E0
8.242254310E-1,-2.797762871E0,-4.886921942E-1,4.838052690E-1,2.881035349E0
8.260626150E-1,-2.585181713E0,-1.246165112E-1,4.667010605E-1,2.629924646E0
8.283327000E-1,-2.294409752E0,3.200933933E-1,4.276056588E-1,2.355763674E0
8.301652300E-1,-2.151467323E0,5.473352671E-1,4.129449129E-1,2.258076845E0
8.324372380E-1,-1.901623487E0,9.272934198E-1,4.001167417E-1,2.153169381E0
8.345827000E-1,-1.697594523E0,1.222341299E0,4.050036669E-1,2.130721330E0
8.364840080E-1,-1.598023534E0,1.353677392E0,4.141666293E-1,2.134866669E0
8.382688840E-1,-1.445307136E0,1.581530094E0,4.440990388E-1,2.188006881E0
8.406017380E-1,-1.339016676E0,1.760513663E0,4.844161272E-1,2.264295255E0
8.423966920E-1,-1.231504321E0,1.930945039E0,5.241223574E-1,2.349437354E0
8.446587770E-1,-1.189965487E0,1.996918440E0,5.467243791E-1,2.388013539E0
8.466942770E-1,-1.070235968E0,2.089770079E0,5.815436840E-1,2.418829689E0
8.487642380E-1,-8.949176073E-1,2.144747972E0,6.108652353E-1,2.402910262E0
8.506177300E-1,-8.081747293E-1,2.147802114E0,6.285803318E-1,2.379351498E0
8.528695460E-1,-6.010913849E-1,2.116037130E0,6.633996367E-1,2.297612471E0
8.549710080E-1,-3.775147200E-1,2.025629044E0,6.902777553E-1,2.173056319E0
8.569344690E-1,-1.490511149E-1,1.891238809E0,7.067710757E-1,2.024481618E0
8.587513070E-1,-7.330383174E-3,1.792278647E0,7.092145681E-1,1.927511813E0
8.610523920E-1,2.773328125E-1,1.511891484E0,7.134906054E-1,1.694638071E0
8.628411920E-1,5.607742667E-1,1.077566266E0,7.214318514E-1,1.412827220E0
8.651101610E-1,7.751879692E-1,4.923573732E-1,7.171558142E-1,1.165180086E0
8.669420760E-1,8.649851680E-1,1.447750628E-1,7.202101350E-1,1.134839988E0
8.692151610E-1,9.712757468E-1,-6.542366743E-1,7.141014934E-1,1.371620627E0
8.711274990E-1,9.651671052E-1,-1.655444860E0,6.756169796E-1,2.031871928E0
8.733206230E-1,9.358455539E-1,-2.210110426E0,6.261368990E-1,2.480411742E0
8.754667000E-1,8.753699064E-1,-3.278513670E0,4.929682612E-1,3.428985574E0
8.773763540E-1,7.886270285E-1,-4.353025913E0,3.769038618E-1,4.439912579E0
8.791995760E-1,7.275404930E-1,-5.428148746E0,2.455678284E-1,5.482190944E0
8.814948150E-1,6.688974500E-1,-5.969375134E0,1.631010175E-1,6.008948762E0
8.833030380E-1,6.334672570E-1,-6.987687588E0,-3.848451003E-2,7.016447794E0
8.855529300E-1,5.485569835E-1,-7.718282223E0,-1.667662114E-1,7.739548191E0
8.874039610E-1,5.027421117E-1,-7.974845886E0,-1.783726513E-1,7.992667474E0
8.896584690E-1,3.237585723E-1,-8.254622459E0,-7.024950534E-2,8.261267854E0
8.914891530E-1,1.307251602E-1,-8.187426567E0,2.168571651E-1,8.191341153E0
8.937644690E-1,-1.136209369E-1,-7.794640541E0,6.737843752E-1,7.824532974E0
8.958657380E-1,-2.345722616E-1,-7.451945305E0,9.468411207E-1,7.515518683E0
8.978008540E-1,-4.728097022E-1,-6.549086094E0,1.549765110E0,6.746543528E0
8.996108460E-1,-6.963863969E-1,-5.532606602E0,2.176512957E0,5.985975148E0
9.019196610E-1,-8.338310719E-1,-4.586987019E0,2.668870211E0,5.372019394E0
9.037044610E-1,-9.132435322E-1,-4.163657665E0,2.841134310E0,5.122704663E0
9.059768920E-1,-1.012814522E0,-3.434895277E0,3.044552326E0,4.700382717E0
9.078419610E-1,-1.098335743E0,-2.798373699E0,3.083647728E0,4.306520646E0
9.100843150E-1,-1.111774802E0,-2.502104044E0,3.067154408E0,4.111447922E0
9.119309610E-1,-1.143539786E0,-1.909564734E0,3.004235268E0,3.738923676E0
9.141880070E-1,-1.116050839E0,-1.342070937E0,2.885116577E0,3.372035222E0
9.163336610E-1,-1.062294602E0,-7.715228200E-1,2.750115395E0,3.047433669E0
9.182379300E-1,-1.015258074E0,-4.813618064E-1,2.676200628E0,2.902500292E0
9.200476150E-1,-9.297369123E-1,8.307767659E-2,2.513099670E0,2.680854823E0
9.223543920E-1,-8.356636763E-1,6.432411075E-1,2.349387646E0,2.575211683E0
9.241312300E-1,-7.849618196E-1,9.211847782E-1,2.274251223E0,2.576230789E0
9.264102760E-1,-6.835582256E-1,1.452637553E0,2.125200272E0,2.663434607E0
9.282454610E-1,-6.059783101E-1,1.940108061E0,1.977981687E0,2.836131265E0
9.305138920E-1,-5.473352671E-1,2.399478674E0,1.853365183E0,3.080914848E0
9.323531920E-1,-5.192354321E-1,2.612670660E0,1.795943856E0,3.212641864E0
9.346181230E-1,-4.776966274E-1,2.986520290E0,1.678046823E0,3.458805957E0
9.367195460E-1,-4.447098970E-1,3.285844088E0,1.580308437E0,3.673133950E0
9.386803530E-1,-4.190535545E-1,3.511864185E0,1.488678575E0,3.837311538E0
9.404978450E-1,-4.098905921E-1,3.604104996E0,1.450194120E0,3.906487694E0
9.427970460E-1,-3.952298164E-1,3.743382215E0,1.369559884E0,4.005597495E0
9.446211920E-1,-3.805690408E-1,3.819129467E0,1.291369081E0,4.049471173E0
9.468531610E-1,-3.726277947E-1,3.834401131E0,1.254106402E0,4.051452378E0
9.488596150E-1,-3.640756905E-1,3.825238228E0,1.180191636E0,4.019682936E0
9.509568530E-1,-3.518583775E-1,3.781866789E0,1.110553026E0,3.957227407E0
9.528118840E-1,-3.433062732E-1,3.690847874E0,1.034194827E0,3.848347199E0
9.550612380E-1,-3.420845270E-1,3.628539562E0,9.981538057E-1,3.778840060E0
9.572069300E-1,-3.457497358E-1,3.461773396E0,9.138544202E-1,3.597019297E0
9.591078920E-1,-3.543018401E-1,3.263853073E0,8.277224302E-1,3.385763001E0
9.609258070E-1,-3.610213697E-1,3.149010420E0,7.880161405E-1,3.266124996E0
9.632246610E-1,-3.726277947E-1,2.911383867E0,6.976081133E-1,3.016896514E0
9.651840760E-1,-3.781255782E-1,2.646268129E0,6.017022729E-1,2.740029122E0
9.672808920E-1,-3.787364662E-1,2.373211384E0,5.161811113E-1,2.458051367E0
9.691249610E-1,-3.762930036E-1,2.233323336E0,4.660901725E-1,2.312265036E0
9.713852760E-1,-3.726277947E-1,1.943773150E0,3.732386529E-1,2.014053779E0
9.733554610E-1,-3.579670191E-1,1.670105577E0,2.803871334E-1,1.730898601E0
9.754889300E-1,-3.433062732E-1,1.412320495E0,1.857030392E-1,1.465262432E0
9.775891990E-1,-3.329215646E-1,1.288925648E0,1.411098689E-1,1.338685209E0
9.795515460E-1,-3.145956099E-1,1.062294602E0,5.192354694E-2,1.109115086E0
9.813560760E-1,-2.907718420E-1,8.619308472E-1,-3.176499158E-2,9.102099011E-1
9.836683920E-1,-2.755002379E-1,7.715228200E-1,-7.513642311E-2,8.226744951E-1
9.855331150E-1,-2.388483137E-1,6.120869517E-1,-1.459967941E-1,6.730631600E-1
9.877247760E-1,-1.930334121E-1,4.648684561E-1,-2.150245607E-1,5.473574165E-1
9.896879220E-1,-1.453859210E-1,3.378084898E-1,-2.779437006E-1,4.609819329E-1
9.918309690E-1,-1.172861308E-1,2.803871334E-1,-3.084869385E-1,4.330556226E-1
9.936508450E-1,-6.169738993E-2,1.936442852E-1,-3.628539443E-1,4.158938110E-1
9.959353530E-1,-3.054326167E-3,1.276708394E-1,-4.153883755E-1,4.345764313E-1
9.980811610E-1,5.925392732E-2,8.613199741E-2,-4.575380683E-1,4.693301959E-1
9.999834300E-1,9.040805697E-2,7.086037099E-2,-4.752531648E-1,4.889380120E-1
1.001828422E0,1.447750628E-1,6.658431143E-2,-5.094616413E-1,5.338018858E-1
1.004100892E0,1.979203373E-1,8.979719132E-2,-5.302310586E-1,5.730453481E-1
1.005892192E0,2.199114859E-1,1.093448773E-1,-5.436700583E-1,5.965689366E-1
1.008157007E0,2.620611787E-1,1.692096740E-1,-5.607742667E-1,6.416975560E-1
1.010002884E0,2.987131178E-1,2.632829249E-1,-5.687155724E-1,6.942512712E-1
1.012260968E0,3.268128932E-1,3.640756905E-1,-5.717698932E-1,7.525148412E-1
1.014115692E0,3.420845270E-1,4.147774875E-1,-5.729916096E-1,7.857363250E-1
1.016365892E0,3.640756905E-1,5.265658498E-1,-5.736024380E-1,8.595594566E-1
1.018465892E0,3.885102868E-1,6.365215778E-1,-5.760459304E-1,9.422997803E-1
1.020427968E0,4.001167417E-1,6.872233748E-1,-5.766568184E-1,9.822944875E-1
1.022428276E0,4.166100919E-1,7.757988572E-1,-5.809328556E-1,1.054945884E0
1.024545353E0,4.416555762E-1,8.491026759E-1,-5.815436840E-1,1.119923238E0
1.026413076E0,4.618141353E-1,8.979719281E-1,-5.907067060E-1,1.169854817E0
1.028602584E0,4.728097022E-1,9.132435322E-1,-5.949827433E-1,1.188093948E0
1.030459961E0,4.935791194E-1,9.272934198E-1,-6.047565937E-1,1.212115494E0
1.032707815E0,5.161811113E-1,9.352346659E-1,-6.133087277E-1,1.231768816E0
1.034688076E0,5.442809463E-1,9.431759119E-1,-6.200281978E-1,1.253099164E0
1.036812853E0,5.607742667E-1,9.443976879E-1,-6.224716902E-1,1.262468129E0
1.038958545E0,5.919284225E-1,9.395107627E-1,-6.285803318E-1,1.275998810E0
1.040860430E0,6.230825782E-1,9.297369123E-1,-6.304129362E-1,1.284547817E0
1.042701692E0,6.401867867E-1,9.224064946E-1,-6.291912198E-1,1.287072047E0
1.044978391E0,6.737843752E-1,9.101892114E-1,-6.334672570E-1,1.297578726E0
1.046764884E0,7.122688890E-1,8.943067193E-1,-6.310238242E-1,1.305872331E0
1.049035238E0,7.452555895E-1,8.845328689E-1,-6.279694438E-1,1.316111664E0
1.050865038E0,7.629706860E-1,8.814785480E-1,-6.261368990E-1,1.323320110E0
1.053140314E0,7.959573865E-1,8.735373020E-1,-6.230825782E-1,1.335981841E0
1.055222115E0,8.277224302E-1,8.649851680E-1,-6.188064814E-1,1.347681425E0
1.057213430E0,8.619308472E-1,8.619308472E-1,-6.126978397E-1,1.364275710E0
1.059279622E0,8.747590184E-1,8.613200188E-1,-6.090326309E-1,1.370400037E0
1.061241276E0,9.059131742E-1,8.594874144E-1,-6.035348773E-1,1.386957693E0
1.063241891E0,9.303477407E-1,8.607091308E-1,-5.968153477E-1,1.400912447E0
1.065359161E0,9.431759119E-1,8.613200188E-1,-5.931501389E-1,1.408289765E0
1.067165461E0,9.700540304E-1,8.613200188E-1,-5.864306092E-1,1.423649485E0
1.069416584E0,9.987646937E-1,8.600982428E-1,-5.778785348E-1,1.439181539E0
1.071252192E0,1.028697014E0,8.533787727E-1,-5.717698932E-1,1.453751590E0
1.073525122E0,1.042136073E0,8.515461683E-1,-5.638286471E-1,1.459137147E0
1.075362730E0,1.072679400E0,8.497135639E-1,-5.479460955E-1,1.474075697E0
1.077630661E0,1.103222609E0,8.442157507E-1,-5.363397002E-1,1.489114043E0
1.079777007E0,1.136209369E0,8.411614299E-1,-5.143485069E-1,1.504353239E0
1.081678968E0,1.149037480E0,8.411614299E-1,-5.039638281E-1,1.510569172E0
1.083474307E0,1.183246017E0,8.399397135E-1,-4.844161272E-1,1.529780652E0
1.085795891E0,1.217454433E0,8.387179971E-1,-4.563163519E-1,1.547212910E0
1.087567884E0,1.235169530E0,8.381071091E-1,-4.428772926E-1,1.556986702E0
1.089852122E0,1.266323686E0,8.301658630E-1,-4.141666293E-1,1.569804139E0
1.091669807E0,1.299921274E0,8.222246170E-1,-3.848451078E-1,1.585545457E0
1.093956353E0,1.310916781E0,8.191702962E-1,-3.689626157E-1,1.589237614E0
1.095799538E0,1.342070937E0,8.075638413E-1,-3.396410644E-1,1.602707026E0
1.098059160E0,1.369559884E0,7.910705209E-1,-3.060434759E-1,1.610946757E0
1.100159737E0,1.390940189E0,7.739662528E-1,-2.748893499E-1,1.615333565E0
1.102121430E0,1.404990077E0,7.654141784E-1,-2.577851415E-1,1.620589140E0
1.103949384E0,1.426370382E0,7.428121567E-1,-2.247984111E-1,1.623833949E0
1.106237276E0,1.450194120E0,7.208209634E-1,-1.893682331E-1,1.630492618E0
1.108104884E0,1.472796082E0,6.957755089E-1,-1.582140923E-1,1.636540118E0
1.110294122E0,1.479515672E0,6.811147332E-1,-1.429424733E-1,1.635027967E0
1.112138038E0,1.495398164E0,6.560692787E-1,-1.166752651E-1,1.637148645E0
1.114398007E0,1.507615447E0,6.261368990E-1,-9.224065393E-2,1.635071892E0
1.116268307E0,1.515556693E0,6.102544069E-1,-8.063421398E-2,1.635794733E0
1.118501853E0,1.527773976E0,5.784893632E-1,-5.803219974E-2,1.634659292E0
1.120646737E0,1.540602207E0,5.430592299E-1,-4.092797264E-2,1.634026801E0
1.122548468E0,1.550375938E0,5.070181489E-1,-2.565634064E-2,1.631377087E0
1.124548660E0,1.554041147E0,4.862487316E-1,-1.832595654E-2,1.628440222E0
1.126666045E0,1.558928132E0,4.447098970E-1,-5.497787148E-3,1.621127398E0
1.128457192E0,1.563814998E0,4.068362415E-1,4.886921961E-3,1.615876529E0
1.130723314E0,1.566869378E0,3.860668242E-1,9.162978269E-3,1.613756859E0
1.132580345E0,1.569312811E0,3.408628106E-1,1.466076635E-2,1.605971697E0
1.134827660E0,1.574810624E0,2.974913716E-1,1.649336144E-2,1.602748155E0
1.136664153E0,1.574199796E0,2.559525371E-1,1.771509275E-2,1.594970383E0
1.138930430E0,1.579086661E0,2.321287990E-1,1.832595654E-2,1.596162368E0
1.141029853E0,1.583973527E0,1.869247705E-1,1.893682219E-2,1.595077304E0
1.142965545E0,1.588860512E0,1.386664063E-1,1.771509275E-2,1.594998408E0
1.144861653E0,1.590693116E0,8.979719132E-2,1.527163107E-2,1.593298889E0
1.147081276E0,1.594969153E0,6.780604273E-2,1.588249579E-2,1.596488808E0
1.149037653E0,1.601688623E0,2.076941915E-2,1.343903504E-2,1.601879653E0
1.151137506E0,1.611462474E0,-2.932153270E-2,1.038470957E-2,1.611762668E0
1.153076153E0,1.613295078E0,-5.131268129E-2,7.330383174E-3,1.614127546E0
1.155243660E0,1.624290705E0,-1.007927656E-1,6.719517522E-3,1.627428839E0
1.157085038E0,1.634675384E0,-1.466076523E-1,2.443460980E-3,1.641238369E0
1.159346737E0,1.646892667E0,-1.936442852E-1,0.000000000E0,1.658238091E0
1.161506006E0,1.649336219E0,-2.144137025E-1,1.221730490E-3,1.663215167E0
1.163406622E0,1.663996935E0,-2.608394623E-1,-1.221730490E-3,1.684317226E0
1.165267038E0,1.674381614E0,-3.054326177E-1,-6.108652451E-4,1.702011529E0
1.167522622E0,1.682322860E0,-3.500257730E-1,-6.719517522E-3,1.718363581E0
1.169378076E0,1.688431501E0,-3.677408695E-1,-8.552113548E-3,1.728035712E0
1.171578545E0,1.693318486E0,-4.092797041E-1,-1.466076635E-2,1.742140152E0
1.173587807E0,1.700037956E0,-4.483750761E-1,-1.954768784E-2,1.758280801E0
1.175682083E0,1.699427128E0,-4.654793143E-1,-2.321287990E-2,1.762175472E0
1.177519538E0,1.704924941E0,-4.990769029E-1,-2.626720630E-2,1.776664508E0
1.179785852E0,1.701870561E0,-5.345070958E-1,-2.809980139E-2,1.784054607E0
1.181886776E0,1.700037956E0,-5.699372888E-1,-2.932153270E-2,1.793270007E0
1.183850237E0,1.698816299E0,-5.876523852E-1,-3.115412779E-2,1.797855034E0
1.185715845E0,1.695761919E0,-6.304129362E-1,-4.031710699E-2,1.809600626E0
1.187967775E0,1.695761919E0,-6.805039048E-1,-4.642575979E-2,1.827799059E0
1.189780538E0,1.697594523E0,-7.122688890E-1,-5.070181563E-2,1.841663599E0
1.192024737E0,1.707368374E0,-7.977899909E-1,-6.841690838E-2,1.885803942E0
1.193822461E0,1.731192112E0,-9.260717034E-1,-1.020144969E-1,1.965970978E0
1.196129775E0,1.769676566E0,-1.090394497E0,-1.612684280E-1,2.084879568E0
1.197906730E0,1.786780834E0,-1.193630695E0,-2.174680233E-1,2.159775990E0
1.200234199E0,1.849089146E0,-1.401324868E0,-5.235115290E-1,2.378425188E0
1.202380506E0,1.853365183E0,-1.586417079E0,-9.718865752E-1,2.626070289E0
1.204282122E0,1.810604572E0,-1.828930497E0,-1.414153099E0,2.936512331E0
1.206023191E0,1.740965962E0,-1.955990553E0,-1.652390480E0,3.096329411E0
1.208399391E0,1.568091035E0,-2.205834389E0,-2.188119411E0,3.480299039E0
1.210141345E0,1.277930140E0,-2.510656118E0,-2.849686384E0,4.007145128E0
1.212456352E0,1.084896684E0,-2.712852478E0,-3.211929560E0,4.342011156E0
1.214243307E0,6.017022729E-1,-3.236364126E0,-3.943746090E0,5.137045027E0
1.216560468E0,6.536258012E-2,-3.874107361E0,-4.642575741E0,6.047023203E0
1.218348653E0,-4.740314186E-1,-4.560109138E0,-5.257106304E0,6.975418829E0
1.220664737E0,-7.159340382E-1,-4.879591465E0,-5.535660744E0,7.413940537E0
1.222765006E0,-1.193019867E0,-5.374392509E0,-6.027407169E0,8.163150644E0
1.224700275E0,-1.626734138E0,-5.541158676E0,-6.340170383E0,8.576040107E0
1.226500691E0,-1.871691108E0,-5.472741604E0,-6.404922009E0,8.630014728E0
1.228817583E0,-2.370768070E0,-5.147761345E0,-6.458678246E0,8.592701134E0
1.230563884E0,-2.860071182E0,-4.633412838E0,-6.368270397E0,8.378746299E0
1.232874506E0,-3.287065983E0,-4.015828133E0,-6.167295456E0,8.060224042E0
1.234676768E0,-3.447723389E0,-3.665191412E0,-6.037181377E0,7.859261011E0
1.236981660E0,-3.856392384E0,-2.965139866E0,-5.673105717E0,7.473148273E0
1.238780076E0,-4.081801414E0,-2.195449591E0,-5.283984184E0,7.028626505E0
1.241085583E0,-4.286441326E0,-1.433089852E0,-4.841106892E0,6.622963212E0
1.243231506E0,-4.340808392E0,-1.029918790E0,-4.625471592E0,6.426378269E0
1.245132929E0,-4.403116703E0,-2.706133127E-1,-4.189313889E0,6.083668229E0
1.246886922E0,-4.151440144E0,1.035416603E0,-3.695123911E0,5.653360375E0
1.249249775E0,-3.794694901E0,1.957212210E0,-3.410460711E0,5.464579698E0
1.251021807E0,-2.981633186E0,4.007276058E0,-2.835636377E0,5.743625295E0
1.253306160E0,-2.011579275E0,6.037181377E0,-2.299907684E0,6.766356887E0
1.255115768E0,-1.099557400E0,7.742716789E0,-1.857641220E0,8.038004768E0
1.257410929E0,-6.939429045E-1,8.418944359E0,-1.686598897E0,8.614220610E0
1.259214268E0,-3.359758854E-2,9.417098999E0,-1.443474531E0,9.527145484E0
1.261515737E0,4.917465150E-1,1.001208115E1,-1.321301579E0,1.011085661E1
1.263616621E0,9.419541955E-1,1.035538769E1,-1.291369081E0,1.047802300E1
1.265578621E0,1.102000952E0,1.046534348E1,-1.294423461E0,1.060251632E1
1.267363576E0,1.431868076E0,1.059362507E1,-1.306029916E0,1.076944067E1
1.269695160E0,1.677435994E0,1.065532207E1,-1.313360333E0,1.086621348E1
1.271529845E0,1.811215401E0,1.067303753E1,-1.302364707E0,1.090368677E1
1.273752083E0,1.999361992E0,1.068097878E1,-1.262047648E0,1.093953931E1
1.275571230E0,2.204001904E0,1.067731380E1,-1.218065262E0,1.097024783E1
1.277856698E0,2.380541801E0,1.066998291E1,-1.152091861E0,1.099285360E1
1.279660422E0,2.461786985E0,1.066204166E1,-1.109331250E0,1.099864280E1
1.281960391E0,2.600453377E0,1.062416840E1,-1.030529618E0,1.098623244E1
1.284106198E0,2.737287045E0,1.055941677E1,-9.541715384E-1,1.095008978E1
1.286007929E0,2.789821625E0,1.050932598E1,-9.187413454E-1,1.091206318E1
1.287794153E0,2.916270733E0,1.039692688E1,-8.515461683E-1,1.083170598E1
1.290124352E0,3.027448177E0,1.025276184E1,-7.733554244E-1,1.071833226E1
1.291899922E0,3.125797510E0,1.007377911E1,-6.908885837E-1,1.057019217E1
1.294181160E0,3.183218718E0,9.974207878E0,-6.481280327E-1,1.048988914E1
1.296013114E0,3.276681185E0,9.748188019E0,-5.540547967E-1,1.029906724E1
1.298285506E0,3.386026144E0,9.489180565E0,-4.477642179E-1,1.008514817E1
1.300329614E0,3.479488373E0,9.201462746E0,-3.463605940E-1,9.843460858E0
1.302357237E0,3.531411886E0,9.038972855E0,-2.926044464E-1,9.708734085E0
1.304423698E0,3.626707077E0,8.679173470E0,-1.881465018E-1,9.408318417E0
1.306386237E0,3.857614040E0,8.177653313E0,-1.258382350E-1,9.042733826E0
1.308165307E0,4.043316841E0,7.840455532E0,-1.288925707E-1,8.822571469E0
1.310502852E0,4.569882870E0,6.985244274E0,-1.777617931E-1,8.349195546E0
1.312314691E0,5.265658379E0,5.748852730E0,-3.164281845E-1,7.802345331E0
1.314560275E0,6.254649162E0,4.282165527E0,-5.229006410E-1,7.598092052E0
1.316399691E0,6.447682858E0,3.313333035E0,-5.858197808E-1,7.272824406E0
1.318668237E0,7.078706264E0,1.387274981E0,-7.837401032E-1,7.255815791E0
1.320505730E0,7.566176891E0,-6.163630486E-1,-9.169087410E-1,7.646414702E0
1.322774198E0,7.659028530E0,-1.605964780E0,-9.633345008E-1,7.884659426E0
1.324920852E0,7.872220516E0,-3.682295799E0,-1.004262447E0,8.748697119E0
1.326823313E0,7.817242622E0,-5.684711933E0,-1.021977544E0,9.719550920E0
1.328614845E0,7.618100643E0,-7.541131496E0,-9.969320893E-1,1.076559312E1
1.330940429E0,7.487986088E0,-8.441546440E0,-9.657779336E-1,1.132529774E1
1.332749730E0,7.115358353E0,-1.016601944E1,-9.242390990E-1,1.244309020E1
1.334997006E0,6.660874844E0,-1.171761703E1,-8.759807348E-1,1.350692951E1
1.336817268E0,6.365215778E0,-1.242560959E1,-8.429940343E-1,1.398650723E1
1.339101467E0,5.783672333E0,-1.370537281E1,-7.764097452E-1,1.489600355E1
1.341041691E0,5.124548435E0,-1.475667191E1,-7.037167549E-1,1.563699395E1
1.343205121E0,4.510017872E0,-1.557278728E1,-5.974262357E-1,1.622371360E1
1.345306236E0,4.170377254E0,-1.588005257E1,-5.552765131E-1,1.642791673E1
1.347268160E0,3.613267899E0,-1.628444481E1,-4.679227769E-1,1.668705484E1
1.349073730E0,3.105638981E0,-1.633759117E1,-3.707951903E-1,1.663428291E1
1.351385390E0,2.727513313E0,-1.596618462E1,-3.017674387E-1,1.620029147E1
1.353212653E0,2.565023184E0,-1.558011818E1,-2.657263875E-1,1.579208780E1
1.355441813E0,2.324953079E0,-1.444146538E1,-1.704314053E-1,1.462840989E1
1.357265807E0,2.062891960E0,-1.288864613E1,-8.735372871E-2,1.305298253E1
1.359546159E0,1.936442852E0,-1.198700905E1,-4.398229718E-2,1.214249280E1
1.361372307E0,1.646892667E0,-1.002307701E1,6.963863969E-2,1.015771518E1
1.363650275E0,1.340238333E0,-7.952243805E0,2.070833147E-1,8.067050503E0
1.365795698E0,1.028697014E0,-5.896071434E0,3.689626157E-1,5.996499755E0
1.367696198E0,8.460483551E-1,-4.915632725E0,4.563163519E-1,5.008739114E0
1.369481384E0,5.119050741E-1,-3.065932751E0,6.047565937E-1,3.166657698E0
1.371812659E0,1.912008226E-1,-1.442252874E0,7.275404930E-1,1.626642640E0
1.373561999E0,4.214970022E-2,-6.805039048E-1,7.849618196E-1,1.039724589E0
1.375870121E0,-1.698205322E-1,6.701191664E-1,8.454375267E-1,1.092091261E0
1.377660153E0,-3.671300113E-1,1.774563551E0,8.643743396E-1,2.007735849E0
1.379975390E0,-4.434881806E-1,2.633440018E0,8.466592431E-1,2.801521010E0
1.381745845E0,-4.929682612E-1,2.966972589E0,8.130616546E-1,3.115608016E0
1.384080506E0,-4.899139404E-1,3.443447351E0,7.428121567E-1,3.556559465E0
1.386179390E0,-4.819726646E-1,3.696345568E0,6.572909951E-1,3.785141960E0
1.388149506E0,-4.465425014E-1,3.736662626E0,5.381723046E-1,3.801536166E0
1.389915307E0,-4.111123085E-1,3.684739113E0,4.789183438E-1,3.738405869E0
1.392267467E0,-3.543018401E-1,3.451388597E0,3.646865487E-1,3.488640039E0
1.394000114E0,-2.938261926E-1,3.083647728E0,2.547308207E-1,3.108070934E0
1.396324236E0,-2.883284092E-1,2.867401361E0,2.064724565E-1,2.889248123E0
1.398110384E0,-2.834414840E-1,2.392759085E0,1.313360333E-1,2.413065326E0
1.400431236E0,-3.323107064E-1,1.905288696E0,5.436700583E-2,1.934815545E0
1.402219884E0,-4.239404798E-1,1.436144233E0,9.162978269E-3,1.497437728E0
1.404535582E0,-4.886921942E-1,1.216843605E0,-7.330383174E-3,1.311328393E0
1.406678582E0,-6.249151230E-1,8.313875794E-1,-2.321287990E-2,1.040318728E0
1.408579775E0,-7.959573865E-1,5.186246037E-1,-2.321287990E-2,9.502938906E-1
1.410328345E0,-8.814785480E-1,3.933972120E-1,-9.773843922E-3,9.653296458E-1
1.412695775E0,-1.060462117E0,1.924225539E-1,1.588249579E-2,1.077895447E0
1.414427345E0,-1.222952247E0,6.597344577E-2,5.497787148E-2,1.225963808E0
1.416751505E0,-1.366505504E0,-9.773843922E-3,1.087340117E-1,1.370859550E0
1.418549537E0,-1.439198494E0,-2.809980139E-2,1.343903542E-1,1.445732572E0
1.420855659E0,-1.568701982E0,-3.237585723E-2,1.930334121E-1,1.580865587E0
1.422642576E0,-1.671938181E0,8.552113548E-3,2.547308207E-1,1.691253444E0
1.424959544E0,-1.754405022E0,7.941248268E-2,3.109304011E-1,1.783513677E0
1.427057390E0,-1.794111252E0,1.221730486E-1,3.426954150E-1,1.830628740E0
1.429017352E0,-1.847867370E0,2.131919712E-1,4.037819207E-1,1.903445421E0
1.430780614E0,-1.889406204E0,3.268128932E-1,4.569272101E-1,1.971153202E0
1.433132159E0,-1.918116927E0,4.276056588E-1,4.831944108E-1,2.023733180E0
1.434873537E0,-1.926669002E0,4.752531648E-1,5.424483418E-1,2.057223667E0
1.437187390E0,-1.938886285E0,5.528330207E-1,5.888741016E-1,2.100399267E0
1.438981884E0,-1.951103568E0,6.059783101E-1,6.310238242E-1,2.138271712E0
1.441290813E0,-1.956601381E0,6.218608022E-1,6.505714655E-1,2.153658063E0
1.443090537E0,-1.977981687E0,6.096435189E-1,6.835582256E-1,2.179754257E0
1.445394428E0,-2.007914066E0,5.619960427E-1,7.189884186E-1,2.205561787E0
1.447537005E0,-2.047620296E0,4.563163519E-1,7.531968355E-1,2.228963653E0
1.449437928E0,-2.077552795E0,3.714060783E-1,7.721336484E-1,2.247300261E0
1.451229461E0,-2.150245667E0,1.246165112E-1,8.093964458E-1,2.300914668E0
1.453554582E0,-2.258979559E0,-2.425135076E-1,8.497135639E-1,2.425657558E0
1.455312922E0,-2.324342251E0,-4.795292318E-1,8.674286604E-1,2.526845398E0
1.457610390E0,-2.459343433E0,-1.043968678E0,9.028588533E-1,2.820176383E0
1.459418037E0,-2.616335869E0,-1.680490255E0,9.425650835E-1,3.249259887E0
1.461713890E0,-2.772106409E0,-2.334727049E0,9.755517840E-1,3.753295301E0
1.463522537E0,-2.847242832E0,-2.660928965E0,9.896016717E-1,4.020776812E0
1.465817505E0,-2.982244015E0,-3.273015976E0,1.017090678E0,4.543224228E0
1.467915698E0,-3.087923765E0,-3.825849056E0,1.032973170E0,5.023885722E0
1.469877544E0,-3.128851891E0,-4.075081825E0,1.043357849E0,5.242575859E0
1.471661807E0,-3.198490381E0,-4.503909588E0,1.063516378E0,5.625531920E0
1.473993505E0,-3.250413895E0,-4.869206905E0,1.085507512E0,5.954216400E0
1.475772922E0,-3.282178879E0,-5.175861359E0,1.108109593E0,6.228173558E0
1.478049621E0,-3.298061371E0,-5.311473370E0,1.117883444E0,6.351269287E0
1.479964076E0,-3.322496176E0,-5.542991161E0,1.142318010E0,6.562668839E0
1.482155967E0,-3.329826355E0,-5.750685215E0,1.164309144E0,6.746387165E0
1.483950384E0,-3.319441795E0,-5.940053463E0,1.178969979E0,6.906004575E0
1.486259813E0,-3.299283266E0,-6.027407169E0,1.179580808E0,6.971823157E0
1.488402697E0,-3.254079103E0,-6.199671268E0,1.186911225E0,7.101669727E0
1.490303544E0,-3.188105822E0,-6.338948727E0,1.187522054E0,7.194198935E0
1.492089999E0,-3.129462719E0,-6.385985374E0,1.183246017E0,7.209328488E0
1.494419428E0,-2.899777412E0,-6.371935368E0,1.158811331E0,7.095992747E0
1.496182307E0,-2.434908867E0,-6.071389675E0,1.076955438E0,6.629508790E0
1.498475082E0,-2.021964073E0,-5.597358227E0,9.883799553E-1,6.032880968E0
1.500282922E0,-1.875356317E0,-5.346903324E0,9.566149712E-1,5.746429211E0
1.502579120E0,-1.663996935E0,-4.819116116E0,9.095783234E-1,5.178812476E0
1.504418191E0,-1.548543453E0,-4.281554699E0,8.894197941E-1,4.639047859E0
1.506683274E0,-1.461189628E0,-3.756821156E0,8.863654733E-1,4.127278047E0
1.508781274E0,-1.453248382E0,-3.499646902E0,8.900306821E-1,3.892507407E0
1.510742351E0,-1.441641927E0,-3.013398170E0,9.071348906E-1,3.461472763E0
1.512566268E0,-1.499063253E0,-2.570520878E0,9.297369123E-1,3.117559774E0
1.514858967E0,-1.524719596E0,-2.356107235E0,9.443976879E-1,2.961063684E0
1.516650922E0,-1.623679876E0,-1.951714516E0,9.834930301E-1,2.722642913E0
1.518915736E0,-1.726916075E0,-1.575421453E0,1.028697014E0,2.553900826E0
1.520791499E0,-1.839926124E0,-1.214400053E0,1.072679400E0,2.451680388E0
1.523020890E0,-1.906510472E0,-1.045190454E0,1.100168347E0,2.436714111E0
1.524901614E0,-2.039679050E0,-7.116580009E-1,1.151481032E0,2.447990259E0
1.527126620E0,-2.175291061E0,-4.068362415E-1,1.207680583E0,2.521090899E0
1.529270082E0,-2.315179348E0,-1.240056455E-1,1.269377947E0,2.643246713E0
1.531172351E0,-2.391537428E0,6.108652335E-3,1.304197311E0,2.724044642E0
1.532948653E0,-2.540588617E0,2.583959997E-1,1.378111959E0,2.901818669E0
1.535290005E0,-2.701857090E0,4.941899776E-1,1.453248382E0,3.107440479E0
1.537143537E0,-2.783102036E0,6.072000265E-1,1.491732955E0,3.215527332E0
1.539347274E0,-2.935818434E0,8.087855577E-1,1.581530094E0,3.431384763E0
1.541178614E0,-3.091588974E0,9.694431424E-1,1.676825047E0,3.648216637E0
1.543452505E0,-3.247359753E0,1.083064079E0,1.805106759E0,3.869984958E0
1.545497268E0,-3.332880735E0,1.125824690E0,1.883908391E0,3.990574652E0
1.547525466E0,-3.492316723E0,1.174082994E0,2.071444035E0,4.226775054E0
1.549588466E0,-3.682295799E0,1.164309144E0,2.285857677E0,4.487768205E0
1.551551928E0,-3.767816782E0,1.138041973E0,2.412306786E0,4.616362947E0
1.553426230E0,-3.943746090E0,1.006705880E0,2.699413538E0,4.883996663E0
1.555669582E0,-4.079358101E0,7.806857824E-1,3.031724215E0,5.142177021E0
1.557457499E0,-4.174042225E0,5.210680366E-1,3.417791128E0,5.419911124E0
1.559726043E0,-4.219857216E0,3.860668242E-1,3.632204771E0,5.581142716E0
1.561669307E0,-4.246124268E0,1.227839142E-1,4.105625153E0,5.907690334E0
1.563832620E0,-4.238793850E0,-7.880161703E-2,4.640743256E0,6.285704492E0
1.565682499E0,-4.205196381E0,-1.624901593E-1,4.919297695E0,6.473760072E0
1.567937428E0,-4.051869392E0,-2.510656118E-1,5.502063274E0,6.837644316E0
1.570081274E0,-3.835011959E0,-2.400700450E-1,6.082385063E0,7.194467208E0
1.571983236E0,-3.642589569E0,-1.563815027E-1,6.616281509E0,7.554342788E0
1.573787114E0,-3.543018341E0,-9.651670605E-2,6.858795166E0,7.720451125E0
1.576101466E0,-3.298061371E0,-2.626720630E-2,7.255246639E0,7.969724121E0
1.577880960E0,-2.960863829E0,-6.414084882E-2,7.497759819E0,8.061465807E0
1.580158928E0,-2.842355967E0,-8.185594529E-2,7.569842339E0,8.086297105E0
1.581989422E0,-2.478280306E0,-1.453859210E-1,7.618711472E0,8.012975404E0
1.584264543E0,-2.075109243E0,-3.665191531E-1,7.538077354E0,7.827070005E0
1.586096883E0,-1.614516854E0,-6.407976151E-1,7.319998264E0,7.523274609E0
1.588370312E0,-1.453859329E0,-7.715228200E-1,7.167282104E0,7.353834862E0
1.590468966E0,-1.111774802E0,-9.474520087E-1,6.753115177E0,6.909288901E0
1.592439159E0,-8.020660877E-1,-1.053131700E0,6.192340851E0,6.332257228E0
1.594439043E0,-5.302310586E-1,-1.197906733E0,5.518556595E0,5.671912588E0
1.596556274E0,-3.872885704E-1,-1.232726097E0,5.174028397E0,5.332933144E0
1.598544389E0,-1.954768747E-1,-1.284649611E0,4.516737461E0,4.699941821E0
1.600614197E0,6.108652451E-4,-1.288314819E0,3.958406687E0,4.162780194E0
1.602448037E0,6.597344577E-2,-1.312749386E0,3.723223686E0,3.948424757E0
1.604719005E0,2.162462920E-1,-1.434311628E0,3.320052624E0,3.623087320E0
1.606529037E0,4.343251884E-1,-1.646892667E0,2.998737574E0,3.448669433E0
1.608824735E0,6.188064814E-1,-1.806328535E0,2.744006634E0,3.342950290E0
1.610968851E0,7.336491346E-1,-1.858252048E0,2.649933338E0,3.318657624E0
1.612870274E0,8.912523985E-1,-1.931555867E0,2.520430088E0,3.298152018E0
1.614658614E0,1.040914416E0,-1.998751044E0,2.422080755E0,3.308320381E0
1.616986928E0,1.135598540E0,-2.043344259E0,2.356718063E0,3.319481863E0
1.618753307E0,1.156978726E0,-2.049452782E0,2.334116220E0,3.314657600E0
1.621043389E0,1.174082994E0,-2.021353006E0,2.292577267E0,3.274179191E0
1.622865922E0,1.145372391E0,-1.937053680E0,2.262033939E0,3.190744806E0
1.625148005E0,1.133765936E0,-1.885130167E0,2.248594999E0,3.145682822E0
1.626970191E0,1.078788042E0,-1.758681059E0,2.202780008E0,3.018109089E0
1.629252620E0,1.006095052E0,-1.584584475E0,2.147191286E0,2.851940678E0
1.631350505E0,8.985827565E-1,-1.381166339E0,2.095878601E0,2.666041736E0
1.633287889E0,8.588765264E-1,-1.278540969E0,2.071444035E0,2.581320647E0
1.635101730E0,7.513642311E-1,-1.042136073E0,2.014022827E0,2.388908485E0
1.637404505E0,6.505714655E-1,-7.867944241E-1,1.950492740E0,2.201524614E0
1.639260230E0,5.919284225E-1,-6.444628239E-1,1.919338584E0,2.109400907E0
1.641461351E0,4.874704778E-1,-3.347541690E-1,1.842980504E0,1.935527049E0
1.643297191E0,3.854559660E-1,1.221730490E-3,1.754405022E0,1.796250198E0
1.645568312E0,2.755002379E-1,3.591887653E-1,1.658499122E0,1.719167324E0
1.647434807E0,2.278527319E-1,5.540547967E-1,1.604132175E0,1.712347401E0
1.649672928E0,1.191187203E-1,9.663888216E-1,1.483791709E0,1.774749126E0
1.651816043E0,1.710422710E-2,1.390940189E0,1.341460109E0,1.932491239E0
1.653717543E0,-7.880161703E-2,1.808161139E0,1.187522054E0,2.164685896E0
1.655543691E0,-1.221730486E-1,2.011579275E0,1.107498646E0,2.299550105E0
1.657835004E0,-2.058615834E-1,2.384207010E0,9.437867999E-1,2.572460997E0
1.659610037E0,-2.797762752E-1,2.717739582E0,7.654141784E-1,2.837294850E0
1.661892043E0,-3.127630055E-1,2.866179705E0,6.750060916E-1,2.961155183E0
1.663718037E0,-3.707951903E-1,3.105028152E0,4.838052690E-1,3.164293987E0
1.665996081E0,-4.153883755E-1,3.268129110E0,2.858849466E-1,3.306802925E0
1.667824807E0,-4.514294267E-1,3.367700100E0,8.674286306E-2,3.398928775E0
1.670100197E0,-4.605923891E-1,3.392134666E0,-1.160643995E-2,3.423281708E0
1.672199043E0,-4.783074856E-1,3.406795502E0,-2.058615834E-1,3.446362232E0
1.674161427E0,-4.935791194E-1,3.374419689E0,-3.952298164E-1,3.433152370E0
1.675981230E0,-4.941899776E-1,3.335935116E0,-4.874704778E-1,3.407391128E0
1.678278158E0,-5.027421117E-1,3.238196611E0,-6.658431292E-1,3.343951853E0
1.680060883E0,-5.112941861E-1,3.120299578E0,-8.307767510E-1,3.269232511E0
1.682335735E0,-5.155702829E-1,2.978579044E0,-9.847147465E-1,3.179215150E0
1.684178999E0,-5.192354321E-1,2.900999069E0,-1.054964304E0,3.130231735E0
1.686441004E0,-5.167919993E-1,2.734232903E0,-1.185078621E0,3.024485886E0
1.688267383E0,-5.210680366E-1,2.553416729E0,-1.301142931E0,2.912803086E0
1.690545774E0,-5.229006410E-1,2.362826824E0,-1.406211853E0,2.798893970E0
1.692689581E0,-5.283984542E-1,2.267531872E0,-1.453248382E0,2.744601351E0
1.694591504E0,-5.271766782E-1,2.077552795E0,-1.535104394E0,2.636415439E0
1.696536999E0,-5.283984542E-1,1.892460585E0,-1.606575608E0,2.538049877E0
1.698708620E0,-5.314527750E-1,1.804495931E0,-1.635897160E0,2.492951490E0
1.700478614E0,-5.338962078E-1,1.632231951E0,-1.691485882E0,2.410466924E0
1.702764774E0,-5.265658498E-1,1.470352650E0,-1.732413888E0,2.332480737E0
1.704582730E0,-5.235115290E-1,1.313360333E0,-1.761735320E0,2.258913682E0
1.706868120E0,-5.241223574E-1,1.239445567E0,-1.775785327E0,2.228080584E0
1.708765345E0,-5.363397002E-1,1.084285855E0,-1.785559058E0,2.156746912E0
1.710972312E0,-5.485569835E-1,9.407324791E-1,-1.792889476E0,2.097699939E0
1.713070427E0,-5.491678715E-1,8.130616546E-1,-1.790446043E0,2.041654143E0
1.715032273E0,-5.632177591E-1,7.458664775E-1,-1.784337401E0,2.014296654E0
1.716775883E0,-5.662720799E-1,6.206390858E-1,-1.773952723E0,1.962846200E0
1.719148966E0,-6.078109145E-1,4.948008358E-1,-1.758070230E0,1.924856595E0
1.720867191E0,-5.986479521E-1,4.392121136E-1,-1.750128984E0,1.901114966E0
1.723204697E0,-6.371324658E-1,3.292563558E-1,-1.729359508E0,1.872173024E0
1.724988499E0,-6.407976151E-1,2.266310006E-1,-1.700648785E0,1.831444644E0
1.727311043E0,-6.652322412E-1,1.319468915E-1,-1.671938181E0,1.804250869E0
1.729094306E0,-6.774495840E-1,6.841690838E-2,-1.653001308E0,1.787744987E0
1.731414543E0,-6.835582256E-1,-3.115412779E-2,-1.620014668E0,1.758598860E0
1.733557927E0,-6.976081133E-1,-1.356120855E-1,-1.577254057E0,1.729964762E0
1.735458889E0,-7.012733221E-1,-1.820378453E-1,-1.555873752E0,1.716294025E0
1.737218114E0,-6.921103001E-1,-2.785545588E-1,-1.516778350E0,1.690333065E0
1.739575543E0,-7.024950385E-1,-3.811798990E-1,-1.470963478E0,1.674076148E0
1.741324460E0,-7.000515461E-1,-4.679227769E-1,-1.426370382E0,1.656368425E0
1.743631350E0,-7.031059265E-1,-5.088507533E-1,-1.403768301E0,1.650409790E0
1.745413114E0,-6.957755089E-1,-5.876523852E-1,-1.360396862E0,1.637106749E0
1.747735696E0,-6.969972253E-1,-6.627888083E-1,-1.317025423E0,1.630843371E0
1.749530191E0,-6.908885837E-1,-7.348709106E-1,-1.272432327E0,1.623713743E0
1.751839312E0,-6.884451509E-1,-7.654141784E-1,-1.248608589E0,1.618282732E0
1.753936504E0,-6.811147332E-1,-8.283332586E-1,-1.207680583E0,1.615099272E0
1.755897043E0,-6.713408828E-1,-8.833111525E-1,-1.165530920E0,1.609161116E0
1.757678806E0,-6.652322412E-1,-9.108000994E-1,-1.144150615E0,1.606602435E0
1.760012427E0,-6.591235995E-1,-9.615018964E-1,-1.096503139E0,1.600390249E0
1.761878922E0,-6.633996367E-1,-1.004262447E0,-1.051909924E0,1.598485730E0
1.764067735E0,-6.536257863E-1,-1.039081812E0,-1.006705880E0,1.587568710E0
1.765882960E0,-6.517932415E-1,-1.051909924E0,-9.828822017E-1,1.580318430E0
1.768170466E0,-6.395758986E-1,-1.078788042E0,-9.352346659E-1,1.564450335E0
1.769981230E0,-6.359107494E-1,-1.108720422E0,-8.857545853E-1,1.555057761E0
1.772273235E0,-6.316346526E-1,-1.114218235E0,-8.570439219E-1,1.541093409E0
1.774415773E0,-6.224716902E-1,-1.119716048E0,-8.057312369E-1,1.513419261E0
1.776316889E0,-6.401867867E-1,-1.144761443E0,-7.556403279E-1,1.513707432E0
1.778114191E0,-6.359107494E-1,-1.162476540E0,-7.037167549E-1,1.500317119E0
1.780432081E0,-6.340781450E-1,-1.175304770E0,-6.780604124E-1,1.497719039E0
1.782200422E0,-6.505714655E-1,-1.219897866E0,-6.206390858E-1,1.515449409E0
1.784487966E0,-6.481280327E-1,-1.258382440E0,-5.589417219E-1,1.521844985E0
1.786340999E0,-6.615670323E-1,-1.281595230E0,-5.290092826E-1,1.536231784E0
1.788592196E0,-6.664539576E-1,-1.327410221E0,-4.642575979E-1,1.556185686E0
1.790675576E0,-6.743952036E-1,-1.372003317E0,-3.988949955E-1,1.579974433E0
1.792664466E0,-6.890559793E-1,-1.412320495E0,-3.323107064E-1,1.606199778E0
1.794726389E0,-6.957755089E-1,-1.433700681E0,-2.987131178E-1,1.621366932E0
1.796688158E0,-7.098253965E-1,-1.480737329E0,-2.290744632E-1,1.657983787E0
1.798599768E0,-7.287622094E-1,-1.519832730E0,-1.624901593E-1,1.693336629E0
1.800803735E0,-7.409795523E-1,-1.558928132E0,-9.590584040E-2,1.728729461E0
1.802644191E0,-7.501425147E-1,-1.578475833E0,-6.230825558E-2,1.748765869E0
1.804858889E0,-7.672467232E-1,-1.617571115E0,3.054326167E-3,1.790310916E0
1.806895427E0,-7.709119320E-1,-1.653612256E0,6.902777404E-2,1.825788469E0
1.808964042E0,-7.782423496E-1,-1.668272972E0,1.050688252E-1,1.843864236E0
1.810789076E0,-7.886270285E-1,-1.700648785E0,1.802052408E-1,1.883245286E0
1.813067312E0,-7.880161405E-1,-1.737300754E0,2.516764700E-1,1.924194479E0
1.815210388E0,-7.745771408E-1,-1.772730947E0,3.225368559E-1,1.961268666E0
1.817111735E0,-7.672467232E-1,-1.794111252E0,3.555235863E-1,1.983406095E0
1.818922460E0,-7.525860071E-1,-1.836260915E0,4.245513380E-1,2.029404761E0
1.821226888E0,-7.275404930E-1,-1.867415071E0,4.868595898E-1,2.062422477E0
1.823024922E0,-7.177666426E-1,-1.883297563E0,5.204572082E-1,2.081555757E0
1.825281927E0,-6.835582256E-1,-1.888184428E0,5.833762884E-1,2.091128924E0
1.827107922E0,-6.554583907E-1,-1.893682241E0,6.499606371E-1,2.106681505E0
1.829385273E0,-6.133087277E-1,-1.888795376E0,7.159340382E-1,2.110984868E0
1.831247729E0,-5.949827433E-1,-1.884519339E0,7.476990819E-1,2.112929606E0
1.833488927E0,-5.381723046E-1,-1.860695481E0,8.112290502E-1,2.099978494E0
1.835586427E0,-5.137376785E-1,-1.836260915E0,8.717046976E-1,2.096580461E0
1.837548465E0,-4.508185387E-1,-1.794722080E0,9.217956662E-1,2.067358689E0
1.839375960E0,-4.227187634E-1,-1.772730947E0,9.474520087E-1,2.054003766E0
1.841664619E0,-3.677408695E-1,-1.725083470E0,9.944885969E-1,2.024883675E0
1.843458576E0,-2.229658216E-1,-1.431868076E0,1.007316828E0,1.764836292E0
1.845721581E0,-9.590584040E-2,-1.142318010E0,9.859365225E-1,1.512005024E0
1.847566268E0,2.144137025E-1,-3.854559660E-1,8.784242272E-1,9.829438746E-1
1.849824773E0,5.870414972E-1,5.009095073E-1,6.890559793E-1,1.034565704E0
1.851660460E0,9.902125597E-1,1.419650793E0,4.526511431E-1,1.789084220E0
1.853929196E0,1.200961113E0,1.862528086E0,3.316998184E-1,2.240835388E0
1.856071734E0,1.591303945E0,2.655431271E0,9.468411654E-2,3.097180744E0
1.857972119E0,1.943773150E0,3.259577036E0,-9.040805697E-2,3.796217872E0
1.859852883E0,2.087937355E0,3.469103813E0,-1.563815027E-1,4.051989492E0
1.862087927E0,2.304183722E0,3.676797867E0,-2.260201424E-1,4.345019020E0
1.863873037E0,2.419637203E0,3.657250166E0,-2.229658216E-1,4.390881088E0
1.866143504E0,2.484999895E0,3.520416498E0,-1.765400618E-1,4.312739639E0
1.867993191E0,2.511266947E0,3.430008411E0,-1.472185254E-1,4.253597616E0
1.870247311E0,2.548529863E0,3.233309746E0,-8.674286306E-2,4.117866037E0
1.872097229E0,2.575407982E0,3.036000252E0,-1.893682219E-2,3.981253873E0
1.874350927E0,2.596788168E0,2.842966795E0,3.848451003E-2,3.850616839E0
1.876448773E0,2.609005451E0,2.751337051E0,7.024950534E-2,3.792321190E0
1.878418273E0,2.632829189E0,2.568688393E0,1.215621829E-1,3.680316150E0
1.880228499E0,2.652376890E0,2.401922226E0,1.734857261E-1,3.582517389E0
1.882533581E0,2.658485651E0,2.321898699E0,1.997529417E-1,3.535344504E0
1.884404768E0,2.673757076E0,2.177734613E0,2.528982162E-1,3.457667199E0
1.886589388E0,2.670702934E0,2.050674677E0,3.066543639E-1,3.381117817E0
1.888432845E0,2.671924591E0,1.947438359E0,3.714060783E-1,3.327106800E0
1.890694927E0,2.657874584E0,1.901623487E0,4.043927789E-1,3.293023339E0
1.892550922E0,2.638326883E0,1.833817482E0,4.752531648E-1,3.248002597E0
1.894798773E0,2.606561899E0,1.791667819E0,5.516113043E-1,3.210687394E0
1.896942350E0,2.561968803E0,1.772120118E0,6.298020482E-1,3.178166843E0
1.898844273E0,2.542421103E0,1.772120118E0,6.701191664E-1,3.170705674E0
1.900649960E0,2.509434462E0,1.777617812E0,7.452555895E-1,3.164268051E0
1.902960773E0,2.480112791E0,1.809382915E0,8.197811842E-1,3.177556794E0
1.904948004E0,2.469117403E0,1.840536952E0,8.515461683E-1,3.195191371E0
1.907016965E0,2.436741352E0,1.917505980E0,9.156870246E-1,3.233113101E0
1.908891306E0,2.399478674E0,2.025629044E0,9.786061049E-1,3.289124631E0
1.911121657E0,2.353052855E0,2.138028383E0,1.034194827E0,3.343289106E0
1.913117537E0,2.320677042E0,2.202169180E0,1.058018565E0,3.369643054E0
1.915226350E0,2.258368731E0,2.331061840E0,1.055575132E0,3.412963153E0
1.917323888E0,2.173458576E0,2.453234911E0,9.816604257E-1,3.421394584E0
1.919284465E0,2.130087137E0,2.520430088E0,9.156870246E-1,3.424663745E0
1.921284311E0,2.031126976E0,2.668870211E0,7.654141784E-1,3.440087769E0
1.923401042E0,1.918116927E0,2.808758497E0,5.729916096E-1,3.449147174E0
1.925233499E0,1.819156647E0,2.927266359E0,2.773328125E-1,3.457619518E0
1.927456580E0,1.780672193E0,2.982244015E0,1.014036313E-1,3.474889281E0
1.929490888E0,1.736689925E0,3.082426071E0,-2.712241709E-1,3.548380607E0
1.931559580E0,1.667662144E0,3.113580227E0,-6.493497491E-1,3.591257990E0
1.933349960E0,1.558928132E0,3.051882744E0,-1.032362223E0,3.579108403E0
1.935662696E0,1.488678575E0,3.009122133E0,-1.237002134E0,3.577870064E0
1.937805003E0,1.298088670E0,2.885727406E0,-1.682933807E0,3.583953551E0
1.939715080E0,1.039081812E0,2.687196255E0,-2.186897516E0,3.617075541E0
1.941539037E0,8.949176073E-1,2.561968803E0,-2.445293665E0,3.652947136E0
1.943831119E0,5.809328556E-1,2.243708134E0,-2.933374882E0,3.738502022E0
1.945661768E0,2.797762752E-1,1.855808616E0,-3.373808861E0,3.860684733E0
1.947886234E0,-2.748893574E-2,1.399492264E0,-3.782477617E0,4.033171353E0
1.949742499E0,-1.734857261E-1,1.194241524E0,-3.972456694E0,4.151713176E0
1.951989273E0,-4.966334403E-1,7.367035151E-1,-4.309654236E0,4.400283681E0
1.953828114E0,-7.696902156E-1,2.742784917E-1,-4.604091167E0,4.676035414E0
1.956092234E0,-8.936958313E-1,5.314527452E-2,-4.732373238E0,4.816313229E0
1.958190157E0,-1.096503139E0,-3.341432810E-1,-4.943121433E0,5.074290134E0
1.960151234E0,-1.238223910E0,-6.090326309E-1,-5.098892212E0,5.282312087E0
1.961997883E0,-1.300532103E0,-8.576548100E-1,-5.199685097E0,5.428045747E0
1.964267349E0,-1.281595230E0,-9.822713137E-1,-5.231450081E0,5.474980659E0
1.966089268E0,-1.163087368E0,-1.191187263E0,-5.246110916E0,5.503942139E0
1.968322311E0,-9.987646937E-1,-1.347568750E0,-5.170363426E0,5.435635235E0
1.970347960E0,-8.283332586E-1,-1.375057697E0,-4.990158081E0,5.242003179E0
1.972428465E0,-7.483099103E-1,-1.312138557E0,-4.861265659E0,5.090538196E0
1.974298152E0,-6.218608022E-1,-9.834930301E-1,-4.510629177E0,4.658298506E0
1.976531503E0,-5.112941861E-1,-4.306600094E-1,-4.070806026E0,4.125330471E0
1.978674734E0,-3.805690408E-1,2.553416789E-1,-3.587611675E0,3.616765088E0
1.980575619E0,-2.987131178E-1,6.212499738E-1,-3.337156773E0,3.407608602E0
1.982397152E0,-1.154535338E-1,1.393994451E0,-2.854573250E0,3.178858047E0
1.984692234E0,1.038470939E-1,2.185065031E0,-2.409863472E0,3.254648270E0
1.986550345E0,2.241875380E-1,2.572353601E0,-2.206445217E0,3.396419232E0
1.988748080E0,4.954117239E-1,3.326161146E0,-1.852754235E0,3.839463374E0
1.990576729E0,7.886270285E-1,4.037819386E0,-1.561982393E0,4.400648472E0
1.992851426E0,9.382890463E-1,4.379292965E0,-1.434311628E0,4.702748457E0
1.994686422E0,1.239445567E0,5.048190594E0,-1.218065262E0,5.338926537E0
1.996955042E0,1.556484699E0,5.665775299E0,-1.042747021E0,5.967493252E0
1.999052657E0,1.875967145E0,6.211277962E0,-9.053022861E-1,6.551244071E0
2.001014311E0,2.039679050E0,6.453180313E0,-8.442157507E-1,6.820302560E0
2.002816845E0,2.369546175E0,6.871623039E0,-7.354817390E-1,7.305811773E0
2.005131157E0,2.680476665E0,7.187440395E0,-6.444628239E-1,7.698024872E0
2.006936383E0,2.979189873E0,7.449501514E0,-5.668829679E-1,8.043133805E0
2.009187503E0,3.116634369E0,7.564955235E0,-5.302310586E-1,8.198969598E0
2.011048729E0,3.380528212E0,7.749436378E0,-4.624249935E-1,8.467323783E0
2.013291157E0,3.616933107E0,7.883215904E0,-3.988949955E-1,8.682535074E0
2.015165499E0,3.735440969E0,7.937582970E0,-3.634648323E-1,8.780139482E0
2.017394465E0,3.948022127E0,8.036542892E0,-2.822197378E-1,8.958378668E0
2.019537734E0,4.142277241E0,8.118398666E0,-1.869247705E-1,9.116018786E0
2.021438042E0,4.344473839E0,8.178874969E0,-7.696902007E-2,9.261445510E0
2.023437465E0,4.551557064E0,8.195367813E0,-3.909537569E-2,9.374553523E0
2.025553542E0,5.350568771E0,8.194757462E0,-9.957103431E-2,9.787366879E0
2.027338999E0,6.974248409E0,8.078692436E0,-4.282165468E-1,1.068123503E1
2.029609503E0,8.034099579E0,7.933917999E0,-6.969972253E-1,1.131280761E1
2.031447845E0,1.038165474E1,7.620543957E0,-1.289536476E0,1.294273347E1
2.033711849E0,1.247570133E1,7.225314140E0,-1.730581284E0,1.452044076E1
2.035756922E0,1.433700752E1,6.735400200E0,-2.010968447E0,1.596744797E1
2.037782772E0,1.504194546E1,6.494719505E0,-2.100765467E0,1.651831469E1
2.039844888E0,1.640356445E1,6.017633438E0,-2.165517330E0,1.760620073E1
2.041805465E0,1.733391190E1,5.519167423E0,-2.099543810E0,1.831212153E1
2.043594499E0,1.785742378E1,5.184413433E0,-2.023185730E0,1.870451837E1
2.045921118E0,1.848050690E1,3.703065157E0,-1.875356317E0,1.894092891E1
2.047773768E0,1.838643265E1,-1.766011477E0,-1.885740995E0,1.856706011E1
2.049975388E0,1.424782085E1,-7.562511921E0,-2.164906502E0,1.627509772E1
2.051977960E0,1.289475441E1,-8.976664543E0,-2.318844557E0,1.588182098E1
2.054082003E0,9.814771652E0,-1.096686363E1,-2.460565090E0,1.492166951E1
2.055907345E0,6.830084324E0,-1.201938438E1,-2.401922226E0,1.403156738E1
2.058184926E0,4.093408108E0,-1.222402477E1,-2.189951897E0,1.307588088E1
2.060327234E0,2.814867020E0,-1.201877403E1,-2.031737804E0,1.251009049E1
2.062229080E0,7.605272532E-1,-1.114829063E1,-1.618182063E0,1.129076166E1
2.064105768E0,-8.717046976E-1,-9.851424217E0,-1.169806957E0,9.958859197E0
2.066344772E0,-1.514334917E0,-9.151983261E0,-9.065240026E-1,9.320611226E0
2.068160922E0,-2.401311398E0,-7.611381054E0,-3.915646076E-1,7.990791001E0
2.070400311E0,-2.867401361E0,-6.122091293E0,6.536258012E-2,6.760640845E0
2.072250999E0,-3.103806257E0,-4.647462845E0,4.599815309E-1,5.607504542E0
2.074502811E0,-3.081815243E0,-3.973067522E0,6.426302195E-1,5.069104884E0
2.076394883E0,-2.948646545E0,-2.728734970E0,9.285151958E-1,4.123427149E0
2.078605234E0,-2.618168354E0,-1.624901533E0,1.134376764E0,3.283583586E0
2.080702195E0,-2.200947523E0,-6.951646209E-1,1.273653984E0,2.636212875E0
2.082661541E0,-1.975538254E0,-3.274237812E-1,1.301142931E0,2.388080956E0
2.084491268E0,-1.533271790E0,2.657263875E-1,1.307251573E0,2.032348289E0
2.086776426E0,-1.083674908E0,6.579018831E-1,1.269377947E0,1.794019667E0
2.088762734E0,-8.778133392E-1,7.709119320E-1,1.232115149E0,1.697930861E0
2.090830772E0,-4.978551865E-1,9.266825914E-1,1.130100727E0,1.543932662E0
2.092861691E0,-1.918116808E-1,9.950994849E-1,1.020755768E0,1.438386959E0
2.094932887E0,-1.404990070E-2,9.926560521E-1,8.936958313E-1,1.335760336E0
2.096921383E0,6.658431143E-2,1.006705880E0,8.387179971E-1,1.311997743E0
2.099034887E0,8.674286306E-2,1.046412110E0,7.599163651E-1,1.296138693E0
2.101176926E0,5.986479297E-2,1.125213742E0,7.049384713E-1,1.329145593E0
2.103077157E0,1.404990070E-2,1.178359032E0,6.890559793E-1,1.365110087E0
2.104892268E0,-7.147123665E-2,1.306640744E0,6.762278080E-1,1.472990910E0
2.107191080E0,-1.930334121E-1,1.450194120E0,6.713408828E-1,1.609665638E0
2.109004999E0,-2.742784917E-1,1.609019041E0,6.633996367E-1,1.761893880E0
2.111245387E0,-3.567453027E-1,1.654223084E0,6.756169796E-1,1.822135979E0
2.113161883E0,-4.581489265E-1,1.777617812E0,6.884451509E-1,1.960556618E0
2.115347310E0,-5.497786999E-1,1.904066920E0,7.018841505E-1,2.102467316E0
2.117212075E0,-5.907067060E-1,1.961488247E0,7.159340382E-1,2.170007397E0
2.119449272E0,-6.652322412E-1,2.051896334E0,7.385360599E-1,2.279966669E0
2.121545849E0,-7.232644558E-1,2.106874228E0,7.519751191E-1,2.351062965E0
2.123514464E0,-7.648032904E-1,2.138028383E0,7.678576112E-1,2.397017887E0
2.125363422E0,-7.794640660E-1,2.139250040E0,7.715228200E-1,2.403997177E0
2.127629349E0,-8.124507666E-1,2.100154638E0,7.776314616E-1,2.382317452E0
2.129416652E0,-8.326093554E-1,2.014633656E0,7.825183868E-1,2.316100630E0
2.131685349E0,-8.527678847E-1,1.836871743E0,7.812966704E-1,2.170653209E0
2.133595460E0,-8.619308472E-1,1.679268599E0,7.733554244E-1,2.039839803E0
2.135792772E0,-8.735373020E-1,1.142318010E0,7.550294399E-1,1.624200514E0
2.137629652E0,-9.156870246E-1,2.437352389E-1,7.122688890E-1,1.185418308E0
2.139896003E0,-9.584475756E-1,-3.103195429E-1,6.914994717E-1,1.221921230E0
2.142038310E0,-1.081231475E0,-1.535104394E0,6.524040699E-1,1.987772138E0
2.143939233E0,-1.250441194E0,-2.760499954E0,6.139195561E-1,3.092064100E0
2.145730691E0,-1.440420270E0,-3.853338003E0,5.894849896E-1,4.155781139E0
2.148055656E0,-1.517389297E0,-4.305989265E0,5.778785348E-1,4.601951481E0
2.149791306E0,-1.690264106E0,-5.042692661E0,5.699372888E-1,5.348884981E0
2.152110772E0,-1.821600199E0,-5.565593243E0,5.717698932E-1,5.883959231E0
2.153978229E0,-1.872301936E0,-5.753739834E0,5.754350424E-1,6.078006425E0
2.156213464E0,-1.959655762E0,-6.024353027E0,5.845980644E-1,6.361983574E0
2.158085652E0,-2.020742178E0,-6.183788776E0,5.962044597E-1,6.532847950E0
2.160317003E0,-2.069000483E0,-6.269920826E0,6.169738770E-1,6.631238717E0
2.162414695E0,-2.090991735E0,-6.296187878E0,6.224716902E-1,6.663460005E0
2.164376464E0,-2.125811100E0,-6.304129124E0,6.359107494E-1,6.683225219E0
2.166225922E0,-2.157576084E0,-6.274197102E0,6.536257863E-1,6.666926616E0
2.168492964E0,-2.177734613E0,-6.202115059E0,6.725626588E-1,6.607654635E0
2.170258191E0,-2.184454203E0,-6.156910896E0,6.829473376E-1,6.568546948E0
2.172548464E0,-2.199114799E0,-6.057339668E0,7.055493593E-1,6.482690002E0
2.174390075E0,-2.210110426E0,-5.945551395E0,7.281513810E-1,6.384698421E0
2.176652502E0,-2.212553978E0,-5.880188942E0,7.415903807E-1,6.326292231E0
2.178561998E0,-2.225992918E0,-5.750074387E0,7.641924024E-1,6.213082162E0
2.180757310E0,-2.220495224E0,-5.599801540E0,7.776314616E-1,6.073967980E0
2.182900426E0,-2.217440844E0,-5.417763710E0,7.922922373E-1,5.907362737E0
2.184802272E0,-2.218662500E0,-5.319414616E0,7.996225953E-1,5.818765457E0
2.186587345E0,-2.210110426E0,-5.078122616E0,8.063421249E-1,5.596615497E0
2.188918272E0,-2.199114799E0,-4.756807804E0,8.155050874E-1,5.303619041E0
2.190754652E0,-2.176512957E0,-4.544837475E0,8.210029006E-1,5.105565795E0
2.192972926E0,-2.079385281E0,-3.943135262E0,8.289441466E-1,4.534237227E0
2.194810268E0,-1.947438359E0,-3.220481634E0,8.301658630E-1,3.853984105E0
2.197075579E0,-1.905288696E0,-2.577851295E0,8.387179971E-1,3.313440839E0
2.198952037E0,-1.915062547E0,-2.296853304E0,8.478809595E-1,3.108359982E0
2.201178656E0,-1.951103568E0,-1.778839588E0,8.649851680E-1,2.778358284E0
2.203275810E0,-2.040289879E0,-1.355509996E0,8.875871897E-1,2.605379274E0
2.205236964E0,-2.162462950E0,-1.031751394E0,9.211847782E-1,2.566970655E0
2.207064268E0,-2.237599373E0,-8.967501521E-1,9.382890463E-1,2.586773690E0
2.209351849E0,-2.378098488E0,-6.652322412E-1,9.761626720E-1,2.655330472E0
2.211140652E0,-2.531425476E0,-4.697553813E-1,1.017090678E0,2.768259111E0
2.213406079E0,-2.596788168E0,-3.824016452E-1,1.038470864E0,2.822757790E0
2.215223306E0,-2.742784977E0,-2.205223590E-1,1.083064079E0,2.957114699E0
2.217510810E0,-2.869234085E0,-6.719517708E-2,1.131322384E0,3.084948908E0
2.219339537E0,-3.011565685E0,7.330382615E-2,1.177748203E0,3.234500295E0
2.221612887E0,-3.073873997E0,1.411098689E-1,1.199739337E0,3.302724303E0
2.223755425E0,-3.211318493E0,2.651155293E-1,1.246775985E0,3.455040240E0
2.225656156E0,-3.334713459E0,3.500257730E-1,1.296866894E0,3.595093272E0
2.227463037E0,-3.397632599E0,3.781255782E-1,1.318858027E0,3.664187867E0
2.229771541E0,-3.520416498E0,4.141666293E-1,1.361618638E0,3.797218934E0
2.231655729E0,-3.631593943E0,4.312708676E-1,1.404990077E0,3.917711863E0
2.233826964E0,-3.748879910E0,4.404338300E-1,1.448972344E0,4.043216960E0
2.235645729E0,-3.792862415E0,4.373795092E-1,1.466687441E0,4.090021783E0
2.237928848E0,-3.886935472E0,4.092797041E-1,1.505172014E0,4.188235910E0
2.239740652E0,-3.962071896E0,3.481931984E-1,1.545489073E0,4.267058552E0
2.242031271E0,-4.030488968E0,2.693915665E-1,1.604132175E0,4.346337904E0
2.244128541E0,-4.063475609E0,2.223549485E-1,1.648114443E0,4.390621478E0
2.246088464E0,-4.125173092E0,1.270599663E-1,1.791056871E0,4.499009001E0
2.247883114E0,-4.201530933E0,1.466076635E-2,1.995696783E0,4.651438785E0
2.250203464E0,-4.251011372E0,-5.070181563E-2,2.094046116E0,4.739060824E0
2.251972921E0,-4.363410473E0,-1.887573600E-1,2.298686028E0,4.935477459E0
2.254258464E0,-4.488637924E0,-4.086688459E-1,2.528371334E0,5.167934040E0
2.256178652E0,-4.574769974E0,-7.452555895E-1,2.799595356E0,5.414947863E0
2.258360656E0,-4.594317436E0,-9.682214260E-1,2.964529037E0,5.552804503E0
2.260191729E0,-4.543004990E0,-1.485013366E0,3.341432810E0,5.831752074E0
2.262462502E0,-4.423886299E0,-2.013411760E0,3.785531998E0,6.160750718E0
2.264605425E0,-4.156327248E0,-2.469117403E0,4.280943871E0,6.457404847E0
2.266506887E0,-4.019493103E0,-2.651766062E0,4.549113274E0,6.624395793E0
2.268305998E0,-3.635869980E0,-2.872899294E0,5.120272636E0,6.905815863E0
2.270621771E0,-3.297450542E0,-2.881451368E0,5.737857342E0,7.217960165E0
2.272406191E0,-3.082426071E0,-2.831971169E0,6.051230907E0,7.357907765E0
2.274676618E0,-2.816699743E0,-2.587014198E0,6.660263538E0,7.680205095E0
2.276513998E0,-2.437963247E0,-2.356107235E0,7.213096619E0,7.970173708E0
2.278778964E0,-1.919949412E0,-2.436741352E0,7.563733578E0,8.175205184E0
2.280921114E0,-1.603521228E0,-2.582127333E0,7.659028530E0,8.240108004E0
2.282849464E0,-1.053742528E0,-2.886338234E0,7.720115185E0,8.309121505E0
2.284912464E0,-5.998696685E-1,-3.050661087E0,7.569231033E0,8.182886723E0
2.286874041E0,-3.970624208E-1,-3.076317310E0,7.437284470E0,8.058199988E0
2.288873848E0,-8.185594529E-2,-3.051882744E0,7.075041294E0,7.705640661E0
2.290990579E0,1.117883399E-1,-2.992017984E0,6.589403629E0,7.237741944E0
2.292943268E0,1.117883399E-1,-2.798984528E0,6.015800953E0,6.636013270E0
2.295046117E0,1.380555481E-1,-2.696969986E0,5.715866089E0,6.321695309E0
2.296874729E0,7.635815442E-2,-2.552195072E0,5.109887600E0,5.712309650E0
2.299151848E0,2.174680233E-1,-2.487443209E0,4.516737461E0,5.160967288E0
2.300977537E0,3.145956099E-1,-2.510045290E0,4.244291782E0,4.940982745E0
2.303255810E0,5.033529401E-1,-2.583349228E0,3.775147200E0,4.602042350E0
2.305399540E0,7.195992470E-1,-2.691472292E0,3.441004038E0,4.427454682E0
2.307307656E0,9.376781583E-1,-2.762943506E0,3.198490381E0,4.329369223E0
2.309132921E0,1.063516378E0,-2.762943506E0,3.104417086E0,4.289793625E0
2.311424156E0,1.249830246E0,-2.716517687E0,2.960253000E0,4.207688417E0
2.313209537E0,1.400103092E0,-2.556471109E0,2.858238459E0,4.082322903E0
2.315480194E0,1.514945865E0,-2.343889952E0,2.759278297E0,3.924601611E0
2.317318306E0,1.553430319E0,-2.241875410E0,2.709798336E0,3.844757227E0
2.319583810E0,1.580919266E0,-2.024407387E0,2.610227108E0,3.662078173E0
2.321514191E0,1.537547827E0,-1.742187738E0,2.510656118E0,3.420915898E0
2.323688233E0,1.491122007E0,-1.611462474E0,2.460565090E0,3.297671407E0
2.325786425E0,1.372003317E0,-1.317025423E0,2.362215996E0,3.032657824E0
2.327749079E0,1.240667343E0,-1.043968678E0,2.236377716E0,2.762338021E0
2.329547960E0,1.075122833E0,-7.929030657E-1,2.095878601E0,2.485415758E0
2.331866540E0,1.002429843E0,-6.725626588E-1,2.026850939E0,2.359095345E0
2.333686575E0,8.381071091E-1,-4.306600094E-1,1.874745488E0,2.098228352E0
2.335922617E0,6.774495840E-1,-2.064724565E-1,1.711033583E0,1.851811204E0
2.337879614E0,6.059783101E-1,-1.007927656E-1,1.626734138E0,1.738859640E0
2.340026656E0,4.630358517E-1,1.044579595E-1,1.448972344E0,1.524740804E0
2.341871998E0,3.262020350E-1,3.090978265E-1,1.270599723E0,1.347728789E0
2.344130733E0,1.930334121E-1,5.241223574E-1,1.098946571E0,1.232740731E0
2.346273963E0,7.513642311E-2,7.428121567E-1,9.297369123E-1,1.192403501E0
2.348175117E0,7.330383174E-3,8.527678847E-1,8.484918475E-1,1.202998427E0
2.349970344E0,-1.007927656E-1,1.077566266E0,6.939429045E-1,1.285637972E0
2.352290040E0,-2.186897546E-1,1.307251573E0,5.442809463E-1,1.432820167E0
2.354094152E0,-2.657263875E-1,1.423316002E0,4.709770977E-1,1.522582799E0
2.356345310E0,-3.671300113E-1,1.653001308E0,3.304781020E-1,1.725228549E0
2.358196537E0,-4.618141353E-1,1.879021525E0,1.905899495E-1,1.944304173E0
2.360448194E0,-5.100724697E-1,1.990198970E0,1.246165112E-1,2.058299089E0
2.362304344E0,-5.992587805E-1,2.190562725E0,-7.941247895E-3,2.271065653E0
2.364550463E0,-6.860016584E-1,2.365881205E0,-1.368338168E-1,2.467127002E0
2.366647502E0,-7.580837607E-1,2.495995283E0,-2.724458873E-1,2.622767661E0
2.368616656E0,-7.886270285E-1,2.543031931E0,-3.365867436E-1,2.683697939E0
2.370488575E0,-8.429940343E-1,2.606561899E0,-4.691445231E-1,2.779370515E0
2.372731156E0,-8.851437569E-1,2.627942324E0,-6.047565937E-1,2.838184431E0
2.374548421E0,-9.040805697E-1,2.620611906E0,-6.737843752E-1,2.852885175E0
2.376786348E0,-9.291260242E-1,2.576018810E0,-8.069530129E-1,2.854876748E0
2.378648037E0,-9.443976879E-1,2.494162798E0,-9.443976879E-1,2.829244077E0
2.380891732E0,-9.480628371E-1,2.384817839E0,-1.076955438E0,2.783165874E0
2.382754344E0,-9.486737251E-1,2.321287870E0,-1.135598540E0,2.752806433E0
2.384995579E0,-9.401215911E-1,2.184454203E0,-1.257771492E0,2.690289556E0
2.387138425E0,-9.321803451E-1,2.040289879E0,-1.367727280E0,2.627245877E0
2.389039348E0,-9.224064946E-1,1.882686734E0,-1.466076612E0,2.558265763E0
2.390921268E0,-9.187413454E-1,1.804495931E0,-1.510669708E0,2.526344037E0
2.393156079E0,-9.095783234E-1,1.646892667E0,-1.585806131E0,2.460562795E0
2.394944691E0,-9.162978530E-1,1.488678575E0,-1.647503614E0,2.402089468E0
2.397211925E0,-9.156870246E-1,1.411709547E0,-1.676214218E0,2.375100140E0
2.399043883E0,-9.217956662E-1,1.263880134E0,-1.725694299E0,2.329188926E0
2.401315886E0,-9.395107627E-1,1.128268123E0,-1.766011477E0,2.296620553E0
2.403151268E0,-9.743300676E-1,1.002429843E0,-1.791667819E0,2.272500439E0
2.405419771E0,-9.926560521E-1,9.401215911E-1,-1.797776461E0,2.258582486E0
2.407518463E0,-1.037249207E0,8.246681094E-1,-1.800830722E0,2.235834229E0
2.409480040E0,-1.087340117E0,7.092145681E-1,-1.795332909E0,2.215516663E0
2.411281075E0,-1.111163855E0,6.560692787E-1,-1.791056871E0,2.207486518E0
2.413595886E0,-1.171028733E0,5.357288122E-1,-1.775785327E0,2.193564948E0
2.415391768E0,-1.230893493E0,4.245513380E-1,-1.755626678E0,2.185764778E0
2.417651155E0,-1.291369081E0,3.274237812E-1,-1.735468149E0,2.187850573E0
2.419549537E0,-1.320690632E0,2.791654170E-1,-1.724472642E0,2.189968714E0
2.421755078E0,-1.370781660E0,1.844813079E-1,-1.698816299E0,2.190673990E0
2.423563575E0,-1.426370382E0,8.796459436E-2,-1.662164330E0,2.192044821E0
2.425859002E0,-1.468520045E0,-5.497787148E-3,-1.630399346E0,2.194261465E0
2.428001963E0,-1.491732955E0,-5.803219974E-2,-1.614516854E0,2.198931472E0
2.429903540E0,-1.530217409E0,-1.502728462E-1,-1.580308437E0,2.204885939E0
2.431805306E0,-1.565036774E0,-2.474004179E-1,-1.539991260E0,2.209552025E0
2.434020078E0,-1.593747377E0,-2.944370508E-1,-1.519221902E0,2.221431761E0
2.435800575E0,-1.604743004E0,-3.854559660E-1,-1.473407030E0,2.212397949E0
2.438076425E0,-1.634064555E0,-4.746423066E-1,-1.428202987E0,2.221534618E0
2.440056537E0,-1.657888293E0,-5.558874011E-1,-1.384220600E0,2.230172878E0
2.442180540E0,-1.666440368E0,-5.919284225E-1,-1.357342601E0,2.229300718E0
2.444057267E0,-1.690875053E0,-6.701191664E-1,-1.309084177E0,2.240941661E0
2.446284617E0,-1.698205352E0,-7.428121567E-1,-1.263269305E0,2.243105137E0
2.448381771E0,-1.714698792E0,-8.093964458E-1,-1.219287038E0,2.254323720E0
2.450343886E0,-1.723250866E0,-8.417723179E-1,-1.195463300E0,2.259935106E0
2.452322229E0,-1.737300754E0,-9.016370773E-1,-1.153924465E0,2.272158665E0
2.454459578E0,-1.747074604E0,-9.602801800E-1,-1.108109593E0,2.280858296E0
2.456267960E0,-1.758070230E0,-9.871582389E-1,-1.087340117E0,2.290764251E0
2.458515309E0,-1.769676566E0,-1.040303469E0,-1.044579625E0,2.303287444E0
2.460383075E0,-1.785559058E0,-1.097724795E0,-9.963212013E-1,2.320749192E0
2.462621848E0,-1.797776461E0,-1.150870085E0,-9.474520087E-1,2.335415908E0
2.464485306E0,-1.810604572E0,-1.178969979E0,-9.211847782E-1,2.348795548E0
2.466725463E0,-1.823432803E0,-1.230893493E0,-8.692612648E-1,2.365506526E0
2.468868501E0,-1.832595706E0,-1.285871387E0,-8.118399382E-1,2.381376982E0
2.470769501E0,-1.844202161E0,-1.315803766E0,-7.831292152E-1,2.397021595E0
2.472585998E0,-1.857030392E0,-1.367727280E0,-7.250970602E-1,2.417644625E0
2.474885886E0,-1.874745488E0,-1.419650793E0,-6.658431292E-1,2.444059347E0
2.476800844E0,-1.901623487E0,-1.465465665E0,-5.986479521E-1,2.474296036E0
2.478941617E0,-1.914451718E0,-1.490511179E0,-5.638286471E-1,2.490913828E0
2.480921344E0,-1.941940665E0,-1.543045640E0,-4.960225821E-1,2.529458795E0
2.483044040E0,-1.961488247E0,-1.595579982E0,-4.269948006E-1,2.564300330E0
2.484899306E0,-1.988366365E0,-1.649947047E0,-3.549126983E-1,2.608043152E0
2.487146578E0,-1.998140216E0,-1.680490255E0,-3.231477141E-1,2.630786245E0
2.489243617E0,-2.015244484E0,-1.742798567E0,-2.608394623E-1,2.677049570E0
2.491204155E0,-2.024407387E0,-1.809382915E0,-2.070833147E-1,2.723045226E0
2.493093652E0,-2.020131350E0,-1.839315295E0,-1.875356287E-1,2.738463262E0
2.495320271E0,-2.017076969E0,-1.897958279E0,-1.496619880E-1,2.773669742E0
2.497307117E0,-1.996918440E0,-1.935831904E0,-1.191187203E-1,2.783759632E0
2.499374732E0,-1.975538254E0,-1.954768777E0,-1.044579595E-1,2.781147934E0
2.501220037E0,-1.964542627E0,-1.959655762E0,-9.651670605E-2,2.776507503E0
2.503478155E0,-1.957823157E0,-1.968818665E0,-8.063421398E-2,2.777736547E0
2.505364883E0,-1.951714516E0,-1.960266590E0,-6.169738993E-2,2.766882943E0
2.507582040E0,-1.940718889E0,-1.939497113E0,-4.031710699E-2,2.744023383E0
2.509724540E0,-1.948049307E0,-1.933999419E0,-2.626720630E-2,2.745166629E0
2.511625809E0,-1.938886285E0,-1.933388472E0,2.443460980E-3,2.738115589E0
2.513438691E0,-1.937664509E0,-1.943773150E0,3.115412779E-2,2.744771100E0
2.515740847E0,-1.926058173E0,-1.951103568E0,5.009094998E-2,2.742082115E0
2.517554806E0,-1.922392964E0,-1.967597008E0,8.124507964E-2,2.752023520E0
2.519795809E0,-1.910175562E0,-2.000583649E0,1.160643995E-1,2.768497166E0
2.521701883E0,-1.905288696E0,-2.045787811E0,1.502728462E-1,2.799634746E0
2.523898040E0,-1.885740995E0,-2.067778826E0,1.685988009E-1,2.803596606E0
2.525960344E0,-1.866804242E0,-2.117869854E0,2.058615834E-1,2.830673027E0
2.527969117E0,-1.840536952E0,-2.176512957E0,2.510656118E-1,2.861436503E0
2.530031847E0,-1.826487064E0,-2.200336695E0,2.700024247E-1,2.872357547E0
2.531994117E0,-1.785559058E0,-2.251649380E0,3.078760803E-1,2.890144246E0
2.533862344E0,-1.767233133E0,-2.314568520E0,3.457497358E-1,2.932555756E0
2.536109886E0,-1.716531396E0,-2.357939959E0,3.659082949E-1,2.939430176E0
2.538072767E0,-1.693929315E0,-2.375654936E0,3.756821156E-1,2.941814058E0
2.540164693E0,-1.638340592E0,-2.418415546E0,3.872885704E-1,2.946673733E0
2.542200693E0,-1.587027907E0,-2.447736979E0,3.964515328E-1,2.944018973E0
2.544268847E0,-1.557706356E0,-2.461786985E0,3.976732790E-1,2.940236094E0
2.546125614E0,-1.423926830E0,-2.325563908E0,3.549126983E-1,2.749868748E0
2.548372155E0,-1.128878951E0,-1.868025899E0,1.960877478E-1,2.191423932E0
2.550515270E0,-7.379252315E-1,-1.240667343E0,-3.543018550E-2,1.443968283E0
2.552415655E0,-5.473352671E-1,-9.327912331E-1,-1.588249654E-1,1.093115158E0
2.554234383E0,-1.710422635E-1,-3.995058835E-1,-3.793473244E-1,5.768576942E-1
2.556530463E0,9.712757170E-2,-4.520402849E-2,-5.357288122E-1,5.463355467E-1
2.558343575E0,2.278527319E-1,6.902777404E-2,-5.845980644E-1,6.312183441E-1
2.560585232E0,3.787364662E-1,1.918116808E-1,-6.389650702E-1,7.671436584E-1
2.562532960E0,5.235115290E-1,2.370157093E-1,-6.615670323E-1,8.763057147E-1
2.564688001E0,6.175847650E-1,2.241875380E-1,-6.627888083E-1,9.332523767E-1
2.566532575E0,6.725626588E-1,2.076941878E-1,-6.572909951E-1,9.630726130E-1
2.568790963E0,7.422012687E-1,1.576032341E-1,-6.383541822E-1,9.915631924E-1
2.570888039E0,8.155050874E-1,8.002334833E-2,-6.090326309E-1,1.020966713E0
2.572848424E0,8.851437569E-1,6.719517522E-3,-5.778785348E-1,1.057103696E0
2.574663575E0,9.236282706E-1,-2.932153270E-2,-5.589417219E-1,1.079983696E0
2.576963578E0,9.999864101E-1,-8.368854225E-2,-5.106833577E-1,1.125954744E0
2.578795152E0,1.086729288E0,-1.130100712E-1,-4.581489265E-1,1.184758313E0
2.581018193E0,1.129489779E0,-1.288925707E-1,-4.337143302E-1,1.216745075E0
2.582926344E0,1.207069755E0,-1.594358236E-1,-3.872885704E-1,1.277665688E0
2.585120886E0,1.274875760E0,-1.954768747E-1,-3.475823104E-1,1.335789233E0
2.586968383E0,1.334129691E0,-2.309070677E-1,-3.078760803E-1,1.388527201E0
2.589223501E0,1.366505504E0,-2.498438805E-1,-2.883284092E-1,1.418764437E0
2.591365655E0,1.420261741E0,-2.785545588E-1,-2.577851415E-1,1.470098375E0
2.593266001E0,1.474628687E0,-2.919935882E-1,-2.266310006E-1,1.520247227E0
2.595086190E0,1.508837104E0,-2.889392674E-1,-2.150245607E-1,1.551228825E0
2.597381001E0,1.577254057E0,-2.718350291E-1,-1.979203373E-1,1.612698702E0
2.599188383E0,1.643227458E0,-2.565633953E-1,-1.740965992E-1,1.672223334E0
2.601436424E0,1.723250866E0,-2.254092693E-1,-1.594358236E-1,1.745228543E0
2.603275037E0,1.767843962E0,-2.070833147E-1,-1.527163088E-1,1.786470835E0
2.605539616E0,1.842980504E0,-1.698205322E-1,-1.423316002E-1,1.856252794E0
2.607364383E0,1.948049307E0,-1.221730486E-1,-1.368338168E-1,1.956667026E0
2.609641616E0,2.058005095E0,-5.925392732E-2,-1.374446750E-1,2.063440582E0
2.611739001E0,2.107485056E0,-3.176499158E-2,-1.343903542E-1,2.112004508E0
2.613708578E0,2.218051672E0,2.382374369E-2,-1.472185254E-1,2.223059622E0
2.615517344E0,2.339003086E0,5.009094998E-2,-1.655444801E-1,2.345388990E0
2.617824885E0,2.394591808E0,5.986479297E-2,-1.844813079E-1,2.402433573E0
2.619643421E0,2.536312580E0,3.298672289E-2,-2.602286041E-1,2.549840888E0
2.621881001E0,2.692693949E0,-2.504547499E-2,-4.001167417E-1,2.722374218E0
2.623828190E0,2.875342607E0,-1.142318025E-1,-6.145304441E-1,2.942497525E0
2.625986155E0,2.994461536E0,-1.747074574E-1,-7.519751191E-1,3.092375975E0
2.627985190E0,3.261409521E0,-3.817907870E-1,-1.069625020E0,3.453498799E0
2.630089001E0,3.591887712E0,-6.493497491E-1,-1.445918083E0,3.926065656E0
2.632232193E0,4.005443573E0,-9.724974632E-1,-1.888795376E0,4.533969288E0
2.634133732E0,4.232074261E0,-1.153313637E0,-2.128865480E0,4.875720780E0
2.635957575E0,4.638299942E0,-1.466687441E0,-2.606561899E0,5.518982092E0
2.638250193E0,4.934569359E0,-1.610240817E0,-3.026226521E0,6.008402217E0
2.640119460E0,5.035362244E0,-1.590082288E0,-3.197879553E0,6.173302863E0
2.642306578E0,5.109276772E0,-1.422705173E0,-3.428175688E0,6.315155397E0
2.644138498E0,5.083009720E0,-1.098946571E0,-3.578448534E0,6.312682892E0
2.646409924E0,4.949230194E0,-6.811147332E-1,-3.732997417E0,6.236510764E0
2.648334344E0,4.859433174E0,-4.465425014E-1,-3.811799049E0,6.192196942E0
2.650513731E0,4.616308689E0,8.307767659E-2,-3.990782738E0,6.102749763E0
2.652611462E0,4.343251705E0,6.646214128E-1,-4.144720554E0,6.040220647E0
2.654558039E0,4.196644306E0,9.456194043E-1,-4.214970112E0,6.022623393E0
2.656352729E0,3.910148382E0,1.533882618E0,-4.357912540E0,6.052557969E0
2.658673655E0,3.610824347E0,2.167960644E0,-4.481307507E0,6.149814858E0
2.660499537E0,3.312722206E0,2.820975780E0,-4.535063744E0,6.284809936E0
2.662728808E0,3.155729771E0,3.149010420E0,-4.536285400E0,6.360250171E0
2.664553844E0,2.830749512E0,3.827681541E0,-4.480696678E0,6.537654893E0
2.666831770E0,2.480723858E0,4.516126633E0,-4.337143421E0,6.734998417E0
2.668866001E0,2.126421928E0,5.226562977E0,-4.130671024E0,6.992930278E0
2.670934001E0,1.964542627E0,5.584529877E0,-4.015828133E0,7.153549977E0
2.673076578E0,1.639562368E0,6.266866684E0,-3.758043051E0,7.488969914E0
2.674976731E0,1.335962296E0,6.947370529E0,-3.505144835E0,7.895365276E0
2.676861806E0,1.192408919E0,7.293120384E0,-3.381750107E0,8.126972238E0
2.679091731E0,9.279043078E-1,7.985841274E0,-3.158173323E0,8.637634283E0
2.680988460E0,6.927211881E-1,8.659626007E0,-2.977357149E0,9.183334951E0
2.683148193E0,4.917465150E-1,9.299201965E0,-2.841134310E0,9.735965078E0
2.685084613E0,4.123340547E-1,9.597914696E0,-2.787378073E0,1.000297268E1
2.687250731E0,2.852740586E-1,1.014219570E1,-2.717739582E0,1.050388611E1
2.689092613E0,2.193006277E-1,1.060950756E1,-2.676811457E0,1.094417941E1
2.691353347E0,2.046398520E-1,1.082086658E1,-2.662761688E0,1.114555207E1
2.693450270E0,2.260201424E-1,1.119410515E1,-2.637716055E0,1.150289621E1
2.695411308E0,2.962696552E-1,1.150259304E1,-2.622444391E0,1.180146758E1
2.697236575E0,4.257730842E-1,1.176648617E1,-2.596788168E0,1.205714677E1
2.699526501E0,4.990769029E-1,1.188010693E1,-2.578462124E0,1.216694231E1
2.701418575E0,6.933320761E-1,1.209757519E1,-2.526538610E0,1.237802214E1
2.703581231E0,9.169087410E-1,1.231809807E1,-2.456900120E0,1.259415022E1
2.705520113E0,1.138652802E0,1.253312206E1,-2.370768070E0,1.280610089E1
2.707686231E0,1.268156290E0,1.264735413E1,-2.319455385E0,1.292066794E1
2.709558613E0,1.523497939E0,1.286604404E1,-2.204001904E0,1.314206071E1
2.711788424E0,1.759902716E0,1.306579685E1,-2.053729057E0,1.334279236E1
2.713930116E0,2.052507162E0,1.325944138E1,-1.882686734E0,1.354880366E1
2.715827924E0,2.489275932E0,1.345858288E1,-1.821600199E0,1.380754051E1
2.717657690E0,3.817907810E0,1.398331642E1,-1.845423937E0,1.461215753E1
2.719942616E0,6.046344280E0,1.473895645E1,-2.019520521E0,1.605844263E1
2.721725267E0,7.415904045E0,1.522887039E1,-2.128254414E0,1.707171910E1
2.723997577E0,9.718255043E0,1.566625023E1,-2.086715698E0,1.855344334E1
2.725832383E0,1.188682652E1,1.590632057E1,-1.912008166E0,1.994902138E1
2.728100923E0,1.277074909E1,1.594480419E1,-1.760513663E0,2.050434640E1
2.729899844E0,1.446284580E1,1.579025555E1,-1.318247199E0,2.145329473E1
2.732203539E0,1.588127422E1,1.543961906E1,-8.533787727E-1,2.216585128E1
2.734301039E0,1.698877335E1,1.454286861E1,-3.133738637E-1,2.236541192E1
2.736261731E0,1.771264839E1,1.318613720E1,-3.359758854E-2,2.208196676E1
2.738015806E0,1.845362854E1,6.857573032E0,2.492330223E-1,1.968819015E1
2.740376577E0,1.622274780E1,-1.330464482E0,3.604105115E-2,1.627725348E1
2.742119998E0,1.345552921E1,-6.629109859E0,-3.463605940E-1,1.500387715E1
2.744432423E0,1.223501968E1,-8.823337555E0,-5.632177591E-1,1.509517163E1
2.746436383E0,9.560651779E0,-1.226556301E1,-8.674286604E-1,1.557570322E1
2.748535962E0,7.001737595E0,-1.455264282E1,-9.731083512E-1,1.617871077E1
2.750357460E0,5.761681080E0,-1.523803329E1,-9.572258592E-1,1.631903517E1
2.752639846E0,3.585168123E0,-1.591548347E1,-7.904596329E-1,1.633342803E1
2.754782885E0,1.758681059E0,-1.576215553E1,-4.312708676E-1,1.586582808E1
2.756681231E0,3.860668242E-1,-1.489350510E1,3.665191308E-2,1.489855312E1
2.758441844E0,-9.162978828E-2,-1.418062592E1,3.292563558E-1,1.418474382E1
2.760798962E0,-8.038986921E-1,-1.236146927E1,9.291260242E-1,1.242237702E1
2.762539344E0,-1.220508814E0,-1.034255981E1,1.428202987E0,1.051180047E1
2.764855308E0,-1.379944563E0,-9.383501053E0,1.627344966E0,9.623023986E0
2.766657960E0,-1.493565559E0,-7.577172279E0,1.940108061E0,7.962932696E0
2.768958000E0,-1.514945865E0,-5.968764305E0,2.131308794E0,6.516416613E0
2.770995536E0,-1.390940189E0,-4.567439556E0,2.254703522E0,5.280142676E0
2.773029039E0,-1.317636371E0,-3.944967747E0,2.294409752E0,4.750079182E0
2.775092231E0,-1.099557400E0,-2.861903667E0,2.316401005E0,3.842555490E0
2.777054462E0,-9.254608750E-1,-1.999361992E0,2.289522886E0,3.177395357E0
2.778812344E0,-8.393288255E-1,-1.653612256E0,2.259590626E0,2.923124384E0
2.781170577E0,-7.086036801E-1,-1.084285855E0,2.147191286E0,2.507633428E0
2.782927383E0,-6.047565937E-1,-7.006624341E-1,2.016466141E0,2.218737046E0
2.785225346E0,-5.290092826E-1,-4.239404798E-1,1.885740995E0,2.003895070E0
2.787122767E0,-5.332853794E-1,-3.139847219E-1,1.815491557E0,1.918069158E0
2.789331231E0,-5.387831330E-1,-1.093448773E-1,1.693929315E0,1.780909905E0
2.791148075E0,-6.194173694E-1,4.398229718E-2,1.607186437E0,1.722980140E0
2.793434539E0,-6.914994717E-1,1.893682331E-1,1.525941372E0,1.685980106E0
2.795577539E0,-7.434229851E-1,2.461786866E-1,1.500895858E0,1.692917617E0
2.797475116E0,-8.319984674E-1,3.475823104E-1,1.459357023E0,1.715446832E0
2.799323960E0,-9.236282706E-1,4.422664344E-1,1.411709547E0,1.744021968E0
2.801591115E0,-9.663888216E-1,4.880813360E-1,1.397048831E0,1.767449060E0
2.803377575E0,-1.051909924E0,5.644394755E-1,1.384831548E0,1.828350301E0
2.805646000E0,-1.119716048E0,6.389650702E-1,1.360396862E0,1.874225176E0
2.807448575E0,-1.185078621E0,7.098253965E-1,1.349401355E0,1.931100062E0
2.809749346E0,-1.221119642E0,7.385360599E-1,1.346346974E0,1.961942626E0
2.811568344E0,-1.276097536E0,7.898487449E-1,1.330464482E0,2.005597592E0
2.813852500E0,-1.321912408E0,8.356636763E-1,1.316414595E0,2.044195093E0
2.815950692E0,-1.357342601E0,8.668177724E-1,1.304197311E0,2.072361603E0
2.817912577E0,-1.378722906E0,8.759807348E-1,1.296256065E0,2.085305466E0
2.819685460E0,-1.392772794E0,9.010262489E-1,1.282817006E0,2.096970154E0
2.822030000E0,-1.422705173E0,9.034696817E-1,1.276708364E0,2.114315900E0
2.823765844E0,-1.428202987E0,9.089674950E-1,1.269988894E0,2.116331134E0
2.826085923E0,-1.441031098E0,9.046914577E-1,1.259604096E0,2.116988366E0
2.827915729E0,-1.450804949E0,8.875871897E-1,1.252884626E0,2.112431278E0
2.830189462E0,-1.456913590E0,8.576548100E-1,1.231504321E0,2.091595534E0
2.832025536E0,-1.450804949E0,8.319984674E-1,1.225395679E0,2.073318842E0
2.834293423E0,-1.447139740E0,7.556403279E-1,1.205847979E0,2.029599734E0
2.836436192E0,-1.412931323E0,5.772676468E-1,1.162476540E0,1.918584000E0
2.838333615E0,-1.384831548E0,4.233296216E-1,1.128878951E0,1.836119296E0
2.840137806E0,-1.295034289E0,4.886921961E-3,1.062294602E0,1.674994781E0
2.842449385E0,-1.190576315E0,-5.723807216E-1,9.688322544E-1,1.638208653E0
2.844232613E0,-1.081842303E0,-1.230893493E0,8.704829812E-1,1.855592137E0
2.846505077E0,-1.037860036E0,-1.577254057E0,8.222246170E-1,2.059353572E0
2.848539154E0,-9.584475756E-1,-2.279749155E0,7.250970602E-1,2.577138668E0
2.850608538E0,-9.346238375E-1,-2.985909224E0,6.322455406E-1,3.192007211E0
2.852490460E0,-9.291260242E-1,-3.653584957E0,5.833762884E-1,3.814745876E0
2.854711885E0,-9.376781583E-1,-3.959017754E0,4.776966274E-1,4.096493131E0
2.856809692E0,-9.669997096E-1,-4.496579170E0,3.866777122E-1,4.615607471E0
2.858746461E0,-1.009760261E0,-4.915632725E0,3.231477141E-1,5.028666355E0
2.860537190E0,-1.042747021E0,-5.076900959E0,2.993239760E-1,5.191516112E0
2.862861846E0,-1.120326877E0,-5.327355862E0,2.706133127E-1,5.450604036E0
2.864849192E0,-1.210734963E0,-5.502674103E0,2.577851415E-1,5.640191008E0
2.866917692E0,-1.282206178E0,-5.612019062E0,2.474004179E-1,5.761945644E0
2.868848267E0,-1.318247199E0,-5.644394875E0,2.467895597E-1,5.801540680E0
2.871024192E0,-1.381777167E0,-5.701205254E0,2.565633953E-1,5.871871444E0
2.873058923E0,-1.471574426E0,-5.723196507E0,2.651155293E-1,5.915301834E0
2.875127538E0,-1.486235142E0,-5.709146500E0,2.693915665E-1,5.905575371E0
2.877270269E0,-1.541213036E0,-5.656612396E0,2.871066630E-1,5.869840855E0
2.879168346E0,-1.585806131E0,-5.567425728E0,2.999348342E-1,5.796634474E0
2.880969613E0,-1.632231951E0,-5.430592060E0,3.200933933E-1,5.679610114E0
2.883284692E0,-1.664607763E0,-5.335907936E0,3.347541690E-1,5.599543987E0
2.885083575E0,-1.709200978E0,-5.111109734E0,3.512475193E-1,5.400757865E0
2.887340192E0,-1.778839588E0,-4.858211517E0,3.817907870E-1,5.187702153E0
2.889207498E0,-1.799609065E0,-4.709771156E0,3.952298164E-1,5.057345523E0
2.891444000E0,-1.846645594E0,-4.377460480E0,4.202753007E-1,4.769579806E0
2.893296844E0,-1.915062547E0,-4.004221916E0,4.471533597E-1,4.461076534E0
2.895547961E0,-1.987755537E0,-3.605326653E0,4.764748812E-1,4.144463857E0
2.897645769E0,-2.032348633E0,-3.400075912E0,4.905247986E-1,3.991437304E0
2.899605384E0,-2.123367548E0,-2.993850470E0,5.247332454E-1,3.707718349E0
2.901465152E0,-2.218662500E0,-2.586403370E0,5.528330207E-1,3.452183372E0
2.903721769E0,-2.306627274E0,-2.205223560E0,5.803219676E-1,3.243503340E0
2.905531729E0,-2.365270138E0,-2.020742178E0,5.943718553E-1,3.167203763E0
2.907777192E0,-2.467895508E0,-1.663996935E0,6.212499738E-1,3.040615985E0
2.909736306E0,-2.575407982E0,-1.343903542E0,6.456845403E-1,2.975854756E0
2.911882692E0,-2.629774809E0,-1.197295904E0,6.615670323E-1,2.964271237E0
2.913765575E0,-2.741563320E0,-9.126327038E-1,6.860016584E-1,2.969792277E0
2.915988230E0,-2.841745138E0,-6.646214128E-1,7.134906054E-1,3.004381117E0
2.918131538E0,-2.957198620E0,-4.434881806E-1,7.574729323E-1,3.084715657E0
2.920030307E0,-3.006067753E0,-3.469714522E-1,7.782423496E-1,3.124498948E0
2.921847152E0,-3.121521473E0,-1.820378453E-1,8.301658630E-1,3.235152151E0
2.924148730E0,-3.223536015E0,-4.703662544E-2,8.955284357E-1,3.345948006E0
2.925942306E0,-3.279124737E0,1.221730467E-2,9.291260242E-1,3.408237590E0
2.928206192E0,-3.379306555E0,1.197295859E-1,1.002429843E0,3.526884398E0
2.930049729E0,-3.478877544E0,2.101376504E-1,1.079398870E0,3.648540629E0
2.932310384E0,-3.580892086E0,2.852740586E-1,1.152091861E0,3.772464059E0
2.934179383E0,-3.629150391E0,3.207042515E-1,1.189354658E0,3.832512006E0
2.936414346E0,-3.728721380E0,3.921754956E-1,1.266323686E0,3.957365339E0
2.938512500E0,-3.825849056E0,4.636467099E-1,1.338405728E0,4.079634685E0
2.940474884E0,-3.928474426E0,5.308418870E-1,1.408655286E0,4.207019627E0
2.942300959E0,-3.977954388E0,5.601634383E-1,1.441641927E0,4.268048223E0
2.944592000E0,-4.083634377E0,5.968153477E-1,1.502117634E0,4.391880653E0
2.946399767E0,-4.173431396E0,6.255260110E-1,1.555262923E0,4.497516556E0
2.948648615E0,-4.218024731E0,6.261368990E-1,1.575421453E0,4.545957853E0
2.950502113E0,-4.298658848E0,6.224716902E-1,1.624290705E0,4.637268505E0
2.952754384E0,-4.373795033E0,5.882632136E-1,1.665218711E0,4.716894100E0
2.954788844E0,-4.440990448E0,5.271766782E-1,1.711644411E0,4.788531925E0
2.956858807E0,-4.456872940E0,4.880813360E-1,1.734246373E0,4.807239361E0
2.959002576E0,-4.514294147E0,3.946189582E-1,1.786780834E0,4.871053430E0
2.960902500E0,-4.537507057E0,2.809980214E-1,1.846645594E0,4.906936940E0
2.962700883E0,-4.544837475E0,2.046398520E-1,1.878410578E0,4.921976375E0
2.965019499E0,-4.482529163E0,-9.346238524E-2,1.971262097E0,4.897721631E0
2.966787113E0,-4.134335995E0,-8.784242272E-1,2.187508345E0,4.759154967E0
2.969075499E0,-3.386026144E0,-2.282192469E0,2.557081938E0,4.817908628E0
2.970871267E0,-2.999348402E0,-2.882062197E0,2.751337051E0,4.987206524E0
2.973179269E0,-2.593733788E0,-3.785531998E0,3.108693123E0,5.542714173E0
2.974998229E0,-1.954157948E0,-4.438546658E0,3.472157955E0,5.964504220E0
2.977283038E0,-1.547932506E0,-5.147761345E0,3.815464258E0,6.591912424E0
2.979380999E0,-1.144150615E0,-5.431813717E0,3.976732731E0,6.828475972E0
2.981342846E0,-7.727445364E-1,-5.847813129E0,4.246735096E0,7.268343105E0
2.983120498E0,-4.105014503E-1,-6.007859707E0,4.448320866E0,7.486684728E0
2.985458769E0,-3.353650272E-1,-6.059783459E0,4.511850834E0,7.562423105E0
2.987268459E0,3.848451003E-2,-6.401257038E0,4.511240005E0,7.831274425E0
2.989514615E0,3.597996235E-1,-6.801984310E0,4.359745026E0,8.087263011E0
2.991390844E0,5.638286471E-1,-7.111693382E0,4.107458115E0,8.231968031E0
2.993618846E0,7.415903807E-1,-7.166671276E0,3.968180656E0,8.225423466E0
2.995485575E0,1.167974353E0,-7.117190838E0,3.774536371E0,8.140374336E0
2.997722922E0,1.783726573E0,-6.605896950E0,3.651141644E0,7.755668269E0
2.999866153E0,2.388483047E0,-5.739078999E0,3.541796684E0,7.154453352E0
3.001764076E0,2.726291656E0,-5.205793381E0,3.484986305E0,6.832135864E0
3.003594421E0,3.298061371E0,-4.148386002E0,3.342654705E0,6.265752605E0
3.005878999E0,3.781866789E0,-3.241861820E0,3.205209970E0,5.923306123E0
3.007727459E0,3.963904619E0,-2.888781786E0,3.148399591E0,5.828380566E0
3.009933461E0,4.265061378E0,-2.348776817E0,3.043941498E0,5.742219165E0
3.011793344E0,4.431216717E0,-2.005470514E0,2.941926956E0,5.684410945E0
3.014037730E0,4.547891617E0,-1.781893969E0,2.807536602E0,5.633890844E0
3.016103844E0,4.551557064E0,-1.692707539E0,2.742174149E0,5.576867363E0
3.018108307E0,4.541172028E0,-1.553430319E0,2.621222734E0,5.468655938E0
3.020171499E0,4.453207493E0,-1.491122007E0,2.502714872E0,5.321473813E0
3.022114038E0,4.404949188E0,-1.476461291E0,2.445293665E0,5.250045372E0
3.023920690E0,4.241848469E0,-1.442863703E0,2.326785803E0,5.048669752E0
3.026229422E0,4.045149803E0,-1.414763927E0,2.199114799E0,4.816731236E0
3.028051498E0,3.797138453E0,-1.342681766E0,2.069000483E0,4.527893301E0
3.030284922E0,3.656028509E0,-1.285260439E0,1.997529387E0,4.359881020E0
3.032262306E0,3.353039265E0,-1.125824690E0,1.844202161E0,3.988914032E0
3.034390730E0,3.020117760E0,-9.352346659E-1,1.673159957E0,3.577043389E0
3.036425422E0,2.849686384E0,-8.234463334E-1,1.579697490E0,3.360687506E0
3.038494499E0,2.474004269E0,-5.681046844E-1,1.385442376E0,2.891866289E0
3.040637768E0,2.099543810E0,-2.883284092E-1,1.182024240E0,2.426602313E0
3.042538538E0,1.715920448E0,2.565634064E-2,9.786061049E-1,1.975528066E0
3.044343498E0,1.524719596E0,1.912008226E-1,8.765916228E-1,1.769107253E0
3.046654961E0,1.150259256E0,5.229006410E-1,6.823364496E-1,1.436002948E0
3.048571498E0,7.886270285E-1,8.631525636E-1,5.021312237E-1,1.272438880E0
3.050710922E0,4.465425014E-1,1.224173903E0,3.231477141E-1,1.342544747E0
3.052560844E0,2.779437006E-1,1.401935697E0,2.388483137E-1,1.449042758E0
3.054813922E0,-3.420845419E-2,1.762346268E0,7.513642311E-2,1.764278909E0
3.056747536E0,-3.280346394E-1,2.119091511E0,-9.773843735E-2,2.146557327E0
3.058916691E0,-4.679227769E-1,2.299907684E0,-1.832595766E-1,2.354168888E0
3.061013499E0,-7.367035151E-1,2.627942324E0,-3.622430861E-1,2.753185969E0
3.062972961E0,-9.773843884E-1,2.924822807E0,-5.467243791E-1,3.131896589E0
3.064957536E0,-1.197906733E0,3.152064562E0,-7.391469479E-1,3.452076151E0
3.067088461E0,-1.293812633E0,3.244305372E0,-8.344419003E-1,3.591066939E0
3.068927498E0,-1.472796082E0,3.374419689E0,-1.010982037E0,3.818104401E0
3.071143538E0,-1.621236324E0,3.443447351E0,-1.169196129E0,3.981552018E0
3.072988190E0,-1.690264106E0,3.451999426E0,-1.240667343E0,4.038879577E0
3.075245422E0,-1.797776461E0,3.443447351E0,-1.373835921E0,4.120285791E0
3.077091306E0,-1.893682241E0,3.399465084E0,-1.487456918E0,4.165924072E0
3.079347422E0,-1.975538254E0,3.328604698E0,-1.580308437E0,4.180877346E0
3.081490076E0,-2.012190104E0,3.279735565E0,-1.617571115E0,4.173980199E0
3.083387730E0,-2.073887587E0,3.172834158E0,-1.687209845E0,4.149043670E0
3.085208613E0,-2.117259026E0,3.054937124E0,-1.740965962E0,4.104435296E0
3.087503307E0,-2.160630465E0,2.933985710E0,-1.773952723E0,4.052592308E0
3.089304998E0,-2.178956270E0,2.870455742E0,-1.787391663E0,4.022702518E0
3.091559153E0,-2.216830015E0,2.742784977E0,-1.798998117E0,3.958989640E0
3.093507344E0,-2.247984171E0,2.621222734E0,-1.799609065E0,3.893948413E0
3.095661999E0,-2.260812283E0,2.559525490E0,-1.795332909E0,3.858194288E0
3.097512575E0,-2.298686028E0,2.424524069E0,-1.791056871E0,3.790799273E0
3.099765076E0,-2.337781191E0,2.280359983E0,-1.788002610E0,3.723199684E0
3.101863037E0,-2.353663683E0,2.145969629E0,-1.780672193E0,3.649069997E0
3.103799730E0,-2.363437653E0,2.076330900E0,-1.770287514E0,3.609834543E0
3.105660805E0,-2.410474300E0,1.905288696E0,-1.751961470E0,3.536930924E0
3.107915614E0,-2.441628456E0,1.744631171E0,-1.733024716E0,3.465351657E0
3.109759729E0,-2.451402187E0,1.665218711E0,-1.722029090E0,3.427493286E0
3.111970653E0,-2.495995283E0,1.500285029E0,-1.701870561E0,3.373012159E0
3.113809036E0,-2.533258200E0,1.343903542E0,-1.692096710E0,3.329664414E0
3.116076037E0,-2.544864655E0,1.194241524E0,-1.676825047E0,3.273269186E0
3.117940152E0,-2.566244841E0,1.123381138E0,-1.670105577E0,3.261418464E0
3.120179037E0,-2.578462124E0,9.828822017E-1,-1.657888293E0,3.219179700E0
3.122321922E0,-2.608394623E0,8.472700715E-1,-1.644449234E0,3.197780850E0
3.124219845E0,-2.624277115E0,7.147123218E-1,-1.627955914E0,3.169839828E0
3.126090382E0,-2.636494398E0,6.505714655E-1,-1.618792892E0,3.161461113E0
3.128335845E0,-2.647490025E0,5.253441334E-1,-1.599245191E0,3.137319727E0
3.130129344E0,-2.660928965E0,4.050036669E-1,-1.575421453E0,3.118737513E0
3.132390845E0,-2.668259382E0,3.378084898E-1,-1.562593341E0,3.110533822E0
3.134208998E0,-2.670091867E0,2.131919712E-1,-1.536326051E0,3.087902060E0
3.136493345E0,-2.668870211E0,8.735372871E-2,-1.505172014E0,3.065296343E0
3.138342652E0,-2.667648554E0,-3.359758854E-2,-1.479515672E0,3.050646526E0
3.140596345E0,-2.668259382E0,-9.590584040E-2,-1.462411404E0,3.044249197E0
3.142694307E0,-2.662150621E0,-2.040289938E-1,-1.431868076E0,3.029673241E0
3.144656306E0,-2.666426897E0,-3.048217595E-1,-1.400714040E0,3.027333567E0
3.146452267E0,-2.662761688E0,-3.506366611E-1,-1.381166339E0,3.020077206E0
3.148773037E0,-2.663372517E0,-4.367686510E-1,-1.348790407E0,3.017209900E0
3.150586575E0,-2.668870211E0,-5.076290369E-1,-1.309695125E0,3.015933812E0
3.152829191E0,-2.676811457E0,-5.681046844E-1,-1.279151797E0,3.020644274E0
3.154828190E0,-2.684752703E0,-5.992587805E-1,-1.258993268E0,3.025239199E0
3.156933076E0,-2.697580814E0,-6.414085031E-1,-1.224784851E0,3.031244802E0
3.158949075E0,-2.713463306E0,-6.841690540E-1,-1.189354658E0,3.040647121E0
3.161036653E0,-2.734843731E0,-7.232644558E-1,-1.151481032E0,3.054241358E0
3.163179499E0,-2.742784977E0,-7.397578359E-1,-1.133154988E0,3.058455707E0
3.165076806E0,-2.769052267E0,-7.764097452E-1,-1.096503139E0,3.077788440E0
3.166876113E0,-2.798373699E0,-8.155050874E-1,-1.055575132E0,3.100029479E0
3.169193191E0,-2.808758497E0,-8.368853927E-1,-1.036027431E0,3.108513197E0
3.171038267E0,-2.835636377E0,-8.814785480E-1,-9.975429177E-1,3.132559651E0
3.173248460E0,-2.858238459E0,-9.321803451E-1,-9.523389339E-1,3.153638649E0
3.175222959E0,-2.883894920E0,-9.816604257E-1,-9.071348906E-1,3.178584718E0
3.177351037E0,-2.885727406E0,-1.006095052E0,-8.851437569E-1,3.181686563E0
3.179177152E0,-2.913827181E0,-1.066570759E0,-8.326093554E-1,3.212662504E0
3.181453806E0,-2.931542397E0,-1.131322384E0,-7.788531780E-1,3.237351299E0
3.183551422E0,-2.959642172E0,-1.203404546E0,-7.318165898E-1,3.277685129E0
3.185512383E0,-2.961474657E0,-1.235169530E0,-7.073819637E-1,3.285782274E0
3.187325305E0,-2.978579044E0,-1.305419087E0,-6.554583907E-1,3.317480643E0
3.189628422E0,-2.995072365E0,-1.389107585E0,-6.114761233E-1,3.357675000E0
3.191416152E0,-2.985909224E0,-1.434922457E0,-5.894849896E-1,3.364840100E0
3.193683960E0,-2.987131119E0,-1.536326051E0,-5.442809463E-1,3.402865234E0
3.195635767E0,-2.992628813E0,-1.633453608E0,-4.984660447E-1,3.445644540E0
3.197790499E0,-2.994461536E0,-1.729359508E0,-4.563163519E-1,3.487937616E0
3.199670305E0,-3.002402782E0,-1.778228760E0,-4.324925840E-1,3.516186830E0
3.201893883E0,-3.006067753E0,-1.871691108E0,-3.927863538E-1,3.562857288E0
3.204037191E0,-3.024393797E0,-1.973094702E0,-3.530801237E-1,3.628322769E0
3.205934345E0,-3.030502558E0,-2.028683424E0,-3.329215646E-1,3.662012965E0
3.207758805E0,-3.052493572E0,-2.139250040E0,-2.962696552E-1,3.739235677E0
3.210049960E0,-3.073873997E0,-2.255314589E0,-2.583959997E-1,3.821245050E0
3.211850998E0,-3.095254183E0,-2.371989727E0,-2.205223590E-1,3.905837149E0
3.214105575E0,-3.109915018E0,-2.430022001E0,-1.979203373E-1,3.951676961E0
3.216069536E0,-3.136182070E0,-2.536312580E0,-1.588249654E-1,4.036551108E0
3.218209614E0,-3.155729771E0,-2.620611906E0,-1.130100712E-1,4.103536088E0
3.220031959E0,-3.160616875E0,-2.654820442E0,-9.162978828E-2,4.128676135E0
3.222313152E0,-3.171001434E0,-2.695748329E0,-5.131268129E-2,4.162324127E0
3.224410768E0,-3.161838531E0,-2.713463306E0,-8.552113548E-3,4.166554830E0
3.226371691E0,-3.156340837E0,-2.714074373E0,3.420845419E-2,4.162914532E0
3.228181267E0,-3.143512487E0,-2.708576441E0,5.681046844E-2,4.149853554E0
3.230488191E0,-3.130684376E0,-2.687196255E0,1.007927656E-1,4.127028901E0
3.232295267E0,-3.088534594E0,-2.638937950E0,1.380555481E-1,4.064738463E0
3.234544614E0,-3.039054632E0,-2.577851295E0,1.685988009E-1,3.988683481E0
3.236415228E0,-3.010954857E0,-2.540588617E0,1.808161139E-1,3.943746206E0
3.238649691E0,-2.946814060E0,-2.466673851E0,1.985312104E-1,3.848065440E0
3.240685152E0,-2.873510122E0,-2.389093876E0,2.076941878E-1,3.742721850E0
3.242753998E0,-2.827084303E0,-2.335948706E0,2.101376504E-1,3.673311836E0
3.244897768E0,-2.641381264E0,-2.009746552E0,1.453859210E-1,3.322215112E0
3.246796191E0,-2.221106052E0,-1.147204876E0,-1.062905490E-1,2.502136848E0
3.248603305E0,-1.684155464E0,-2.993239649E-2,-4.654793143E-1,1.747554453E0
3.250912691E0,-1.400103092E0,5.601634383E-1,-6.670648456E-1,1.648953382E0
3.252823959E0,-7.806857824E-1,1.713477015E0,-1.077566266E0,2.169475243E0
3.254968191E0,-1.679879427E-1,2.715906858E0,-1.457524419E0,3.086866930E0
3.257002152E0,1.270599663E-1,3.144734383E0,-1.635286212E0,3.546781579E0
3.259071806E0,6.792821288E-1,3.813020945E0,-1.926058173E0,4.325534998E0
3.261113498E0,1.101390004E0,4.193589687E0,-2.127032757E0,4.829443317E0
3.263142460E0,1.452637553E0,4.330423832E0,-2.231490850E0,5.083530057E0
3.265205383E0,1.582751870E0,4.321260929E0,-2.255314589E0,5.124923745E0
3.267166691E0,1.804495931E0,4.181372643E0,-2.240653753E0,5.075491304E0
3.268988728E0,1.963320851E0,3.943746090E0,-2.189951897E0,4.919720652E0
3.271283037E0,2.097711325E0,3.637091637E0,-2.108706713E0,4.698454254E0
3.273270114E0,2.153910875E0,3.462995052E0,-2.059837580E0,4.568872689E0
3.275338652E0,2.268753529E0,3.090978146E0,-1.951714516E0,4.302392128E0
3.277196728E0,2.343889952E0,2.716517687E0,-1.843591332E0,4.033871273E0
3.279445152E0,2.376876593E0,2.535090685E0,-1.789835215E0,3.908930444E0
3.281434421E0,2.407419920E0,2.219273329E0,-1.676825047E0,3.678666472E0
3.283547806E0,2.404976368E0,1.977981687E0,-1.565036774E0,3.485062838E0
3.285690191E0,2.374433279E0,1.791667819E0,-1.455080986E0,3.311384551E0
3.287587498E0,2.349998713E0,1.725083470E0,-1.397048831E0,3.232669542E0
3.289378536E0,2.287690401E0,1.626123309E0,-1.290147424E0,3.089058880E0
3.291702844E0,2.199725866E0,1.574199796E0,-1.180191636E0,2.951228758E0
3.293595036E0,2.156965256E0,1.563204169E0,-1.119716048E0,2.889614233E0
3.295758075E0,2.058615923E0,1.561371565E0,-9.908234477E-1,2.767220950E0
3.297699844E0,1.963320851E0,1.563814998E0,-8.539896011E-1,2.651309931E0
3.299861383E0,1.868025899E0,1.570534587E0,-7.055493593E-1,2.540452626E0
3.301758459E0,1.814880610E0,1.573588848E0,-6.261368990E-1,2.482341819E0
3.303964267E0,1.709811807E0,1.584584475E0,-4.569272101E-1,2.375530856E0
3.306061844E0,1.609629869E0,1.582141042E0,-2.742784917E-1,2.273611067E0
3.308022883E0,1.529606581E0,1.574810624E0,-1.771509200E-1,2.202522927E0
3.309828613E0,1.490511179E0,1.530828357E0,3.115412779E-2,2.136826996E0
3.312138498E0,1.442252874E0,1.450194120E0,2.583959997E-1,2.061534582E0
3.313942344E0,1.415985584E0,1.348790407E0,4.984660447E-1,2.018097900E0
3.316194575E0,1.413542151E0,1.292590857E0,6.243042946E-1,2.014608743E0
3.318073421E0,1.415985584E0,1.194852471E0,8.955284357E-1,2.057828657E0
3.320297844E0,1.433089852E0,1.106276989E0,1.206458807E0,2.175577660E0
3.322333114E0,1.470963478E0,1.011592865E0,1.549765110E0,2.364069706E0
3.324402114E0,1.501506805E0,9.615018964E-1,1.727526903E0,2.482611082E0
3.326545113E0,1.589471340E0,8.613200188E-1,2.098932981E0,2.770164431E0
3.328459113E0,1.642005801E0,7.531968355E-1,2.480723858E0,3.068791193E0
3.330302651E0,1.722029090E0,7.165449262E-1,2.670091867E0,3.257024931E0
3.332577152E0,1.813048005E0,5.980370641E-1,3.036611080E0,3.586892562E0
3.334367190E0,1.995696783E0,3.646865487E-1,3.356704473E0,3.922150794E0
3.336632806E0,2.225382090E0,-1.588249579E-2,3.638313293E0,4.264962054E0
3.338480267E0,2.337781191E0,-2.309070677E-1,3.761097431E0,4.434455193E0
