"Time (s)","Linear Acceleration x (m/s^2)","Linear Acceleration y (m/s^2)","Linear Acceleration z (m/s^2)","Absolute acceleration (m/s^2)"
6.771360000E-3,3.537840843E-1,-1.913185120E-1,1.250199080E-1,4.211839607E-1
1.497866800E-2,3.421020508E-1,-3.036770821E-1,8.315932751E-2,4.649398424E-1
2.322228300E-2,2.923655510E-1,-3.987703323E-1,-4.855453968E-2,4.968429698E-1
3.142747500E-2,3.468265533E-1,-5.363044739E-1,-1.242885590E-1,6.506602744E-1
3.963155200E-2,3.406686783E-1,-6.420822144E-1,-6.173074245E-2,7.294761154E-1
4.783366800E-2,2.928638458E-1,-6.584382057E-1,9.554255009E-2,7.269377427E-1
5.603809100E-2,2.014689445E-1,-6.429944038E-1,2.508884668E-1,7.190108217E-1
6.425339800E-2,1.475377083E-1,-5.620155334E-1,3.829798698E-1,6.959183974E-1
7.245809100E-2,3.219718933E-1,-5.014114380E-1,3.897854090E-1,7.120477479E-1
8.066336000E-2,4.595375061E-1,-4.492149353E-1,4.848071337E-1,8.049886549E-1
8.886739800E-2,5.892176628E-1,-3.289742470E-1,5.795283318E-1,8.895249275E-1
9.707232100E-2,7.368993759E-1,-2.789855003E-1,7.205246687E-1,1.067712226E0
1.052957440E-1,7.731199265E-1,-2.799878120E-1,7.644482851E-1,1.122714913E0
1.135013210E-1,7.621283531E-1,-4.036827087E-1,7.315212488E-1,1.130894643E0
1.217083980E-1,8.524408340E-1,-4.992642403E-1,7.415335178E-1,1.235229580E0
1.299152440E-1,8.693413734E-1,-4.783368111E-1,7.212535143E-1,1.226689513E0
1.381212830E-1,8.544740677E-1,-3.894524574E-1,6.661430597E-1,1.151323467E0
1.463374370E-1,8.255991936E-1,-2.357316017E-1,6.770331860E-1,1.093415452E0
1.545437440E-1,8.386683464E-1,-1.806540489E-1,6.656769514E-1,1.085875814E0
1.627785130E-1,8.509397507E-1,-8.452701569E-2,6.735571623E-1,1.088541468E0
1.709824750E-1,8.647913933E-1,-5.031347275E-2,6.854997873E-1,1.104674413E0
1.791864360E-1,7.708930969E-1,-1.048445702E-1,6.302554607E-1,1.001244474E0
1.874098980E-1,6.407761574E-1,-2.527737617E-1,6.952183247E-1,9.786813462E-1
1.956148590E-1,3.795523643E-1,-4.477128983E-1,8.620914221E-1,1.042932623E0
2.038198210E-1,1.186404228E-1,-5.726227760E-1,1.172961593E0,1.310653002E0
2.120240900E-1,-2.061829567E-1,-5.175576210E-1,1.473020554E0,1.574854550E0
2.202289750E-1,-3.933401108E-1,-6.458053589E-1,1.632366657E0,1.799000252E0
2.284427440E-1,-6.458063126E-1,-6.154255867E-1,1.547575474E0,1.786282255E0
2.366473980E-1,-9.296383858E-1,-6.237983704E-1,1.308498383E0,1.722068510E0
2.448516670E-1,-8.686652184E-1,-6.895613670E-1,1.573132515E0,1.924790911E0
2.530576280E-1,-1.157551289E0,-5.416054726E-1,1.995281219E0,2.369474334E0
2.612640510E-1,-1.080070019E0,-4.134130478E-1,2.285485029E0,2.561426051E0
2.694861280E-1,-1.553116322E0,-4.357771873E-1,2.389610291E0,2.883107595E0
2.776923980E-1,-1.318350792E0,-6.116590500E-1,2.045689344E0,2.509386478E0
2.858990130E-1,-2.025271416E0,-1.245233536E0,1.195326090E0,2.661040272E0
2.941061280E-1,-7.364287376E-1,-5.467901230E-1,1.293369293E0,1.585594795E0
3.023117440E-1,9.202752113E-1,3.697881699E-1,1.176425695E0,1.538709580E0
3.105276280E-1,1.421772957E0,1.084742546E0,1.255485058E0,2.185028023E0
3.187316280E-1,1.806591034E0,1.487986088E0,1.583605051E0,2.825894322E0
3.269365510E-1,1.575347424E0,1.104595661E0,1.524362326E0,2.454695822E0
3.351409740E-1,1.009161472E0,3.728508949E-1,1.488456964E0,1.836553512E0
3.433453590E-1,1.138974190E0,-1.414608955E-1,1.696014881E0,2.047862268E0
3.515686280E-1,6.492304802E-1,-2.763996124E-1,1.446731567E0,1.609636353E0
3.597746660E-1,3.425722122E-1,-4.829654694E-1,8.901336193E-1,1.069088034E0
3.679809740E-1,8.377647400E-1,-7.753419876E-1,3.744492531E-1,1.201339752E0
3.761872430E-1,1.185263634E0,-8.960342407E-1,-4.934096336E-2,1.486661284E0
3.843935890E-1,8.578467369E-1,-5.314240456E-1,-7.615351677E-2,1.011984139E0
3.926102820E-1,9.342460632E-1,-4.674663544E-1,4.652791023E-1,1.143601829E0
4.008175890E-1,9.085750580E-1,-8.958182335E-1,1.600773573E0,2.047064966E0
4.090561660E-1,7.152571678E-1,-6.791558266E-1,2.533387184E0,2.718620253E0
4.172638590E-1,2.037606239E-1,-8.892917633E-2,2.617913961E0,2.627337112E0
4.254705510E-1,4.125847816E-1,-2.335596085E-1,2.246100187E0,2.295591938E0
4.336963590E-1,1.436376572E-2,-5.222811699E-1,1.457295656E0,1.548126147E0
4.419029740E-1,1.746058464E-1,-1.194252968E0,1.218091965E0,1.714781440E0
4.501085890E-1,4.813013077E-1,-1.946259975E0,1.244832993E0,2.359912715E0
4.583140890E-1,2.395849228E-1,-2.303820133E0,8.229949474E-1,2.458110824E0
4.665182430E-1,-3.355307579E-1,-2.259445667E0,1.057992220E0,2.517344464E0
4.747334350E-1,-1.417085648E0,-2.274137020E0,1.023404121E0,2.868307326E0
4.829404740E-1,-1.451572418E0,-2.882512569E0,1.114665508E0,3.414442911E0
4.911469740E-1,-1.493639946E0,-3.487025261E0,1.085497618E0,3.945707863E0
4.993542430E-1,-1.538178921E0,-4.173055649E0,1.343164206E0,4.645909806E0
5.075607430E-1,-1.231012821E0,-4.731794834E0,6.100304127E-1,4.927211384E0
5.157851270E-1,-1.164973259E0,-4.938635826E0,8.053886890E-1,5.137697681E0
5.239907040E-1,1.761393547E-1,-4.621111870E0,-9.513111115E-1,4.721302026E0
5.321957430E-1,4.940609932E-1,-4.563380241E0,-2.068452358E0,5.034583463E0
5.404006270E-1,1.328129768E-1,-5.144620895E0,-2.098363638E0,5.557687775E0
5.486048970E-1,-7.421936989E-1,-5.783586502E0,-1.496393919E0,6.019960056E0
5.568211270E-1,-1.790150881E0,-6.519352913E0,-1.245947242E0,6.874517227E0
5.650285500E-1,-2.608365297E0,-6.701828957E0,-1.551943064E0,7.357078779E0
5.732352810E-1,-3.292024612E0,-6.550488472E0,-2.481961727E0,7.739926310E0
5.814410890E-1,-3.413403749E0,-6.289124012E0,-3.369701385E0,7.909443307E0
5.896471660E-1,-2.816201448E0,-5.258087635E0,-3.776041508E0,7.059530129E0
5.978693580E-1,-1.575859547E0,-4.204853058E0,-3.458355427E0,5.667834225E0
6.060750500E-1,-1.375569105E0,-2.688251495E0,-2.078559399E0,3.665964490E0
6.142817040E-1,-1.711510420E0,-1.292399406E0,-6.684165597E-1,2.246407096E0
6.224865120E-1,-1.174491644E0,-4.555330276E-1,-4.744634032E-1,1.346126473E0
6.306921650E-1,-2.742686272E-1,-1.458368301E-1,-1.252031326E0,1.289989962E0
6.389075500E-1,2.002630234E-1,1.704597473E-2,-1.598616481E0,1.611201569E0
6.471117810E-1,4.856834412E-1,2.938728333E-1,-4.285165668E-1,7.112496714E-1
6.553487040E-1,1.780787468E0,6.607565880E0,9.486151695E0,1.169693143E1
6.635561270E-1,1.822045803E0,5.763698578E0,7.527187347E0,9.653943317E0
6.717636650E-1,1.446187973E0,1.564922333E0,-6.368601322E-2,2.131782697E0
6.799890500E-1,6.244349480E-1,2.320777893E0,-1.955154419E0,3.098153940E0
6.881979340E-1,2.709219456E0,3.559492111E0,-1.072534561E0,4.600020058E0
6.964081270E-1,3.476045847E0,3.880969048E0,-6.544622779E-1,5.251012888E0
7.046166270E-1,3.486516237E0,2.695251465E0,-8.120774031E-1,4.481031761E0
7.128245880E-1,3.090322733E0,-9.727478027E-2,-1.088107944E0,3.277733344E0
7.210418570E-1,2.453356266E0,-2.971748829E0,-9.799352288E-1,3.976244600E0
7.292478190E-1,1.329345226E0,-5.481539249E0,-1.694492698E0,5.889459803E0
7.374537040E-1,-5.467444658E-1,-7.023638248E0,-2.398730516E0,7.442065026E0
7.456596650E-1,-1.140912175E0,-7.846564293E0,-2.902455330E0,8.443606974E0
7.538665880E-1,-1.626548171E0,-8.029360771E0,-3.636018515E0,8.963086744E0
7.620885110E-1,-2.570491791E0,-7.484957695E0,-5.534686565E0,9.657368954E0
7.702930110E-1,-2.926710844E0,-6.700160980E0,-7.445434570E0,1.043514683E1
7.785002800E-1,-3.223497629E0,-4.983139038E0,-7.761820316E0,9.770796603E0
7.867083960E-1,-3.263587475E0,1.375823975E0,-7.062541008E0,7.900846809E0
7.949167800E-1,-2.632172108E-1,2.217873955E1,-1.639170837E1,2.757995422E1
8.031354340E-1,-6.377870440E-1,2.977993393E1,-2.186035919E1,3.694761888E1
8.113421260E-1,1.252881765E0,3.516635513E1,-1.689050484E1,3.903244035E1
8.195478960E-1,3.200825453E0,3.377705383E1,-1.039198399E1,3.548419339E1
8.277527030E-1,6.855094433E-1,2.748579025E1,-4.666275024E0,2.788750099E1
8.359575880E-1,-4.834810734E0,1.943008995E1,7.081950903E-1,2.003510246E1
8.441819340E-1,-1.639552498E1,1.208465958E1,4.291180801E1,4.750026846E1
8.523888950E-1,-1.248845673E1,2.826457977E0,3.405544281E1,3.638301253E1
8.605949340E-1,-3.951978207E0,3.080139160E-1,2.124932671E1,2.161589438E1
8.687995880E-1,-9.036770463E-1,-6.534729004E-1,1.275599289E1,1.280464813E1
8.770054720E-1,2.200839520E-1,-1.108885765E0,1.195095158E1,1.200430374E1
8.852207800E-1,8.199023008E-1,-1.437023163E0,1.131761742E1,1.143790800E1
8.934263570E-1,1.238812566E0,-2.220114231E0,8.180665016E0,8.566612159E0
9.016622800E-1,2.190810442E0,-3.574747562E0,5.072277069E0,6.580764788E0
9.098672030E-1,2.452198505E0,-4.951817036E0,3.295908928E0,6.434033348E0
9.180733570E-1,2.318019867E0,-6.231867790E0,2.178755522E0,6.996882726E0
9.262948180E-1,2.009616613E0,-7.340109348E0,1.420073628E0,7.741600176E0
9.345007030E-1,1.964344025E0,-8.010516167E0,1.319849849E0,8.352785184E0
9.427062030E-1,1.912684798E0,-8.590044975E0,1.356001377E0,8.904267266E0
9.509119330E-1,1.696043015E0,-9.040273666E0,9.960427284E-1,9.251767992E0
9.591176640E-1,1.542732954E0,-9.775546074E0,4.420487881E-1,9.906398596E0
9.673330100E-1,1.865177870E0,-1.064973068E1,6.817981005E-1,1.083330516E1
9.755413180E-1,2.745108604E0,-1.121947575E1,3.122341871E0,1.196500213E1
9.837485490E-1,6.670010567E0,-1.273611927E1,1.245407677E1,1.902108838E1
9.919562410E-1,7.734936714E0,-1.258787823E1,8.118818283E0,1.685820674E1
1.000162549E0,4.401903152E0,-1.101314545E1,3.138368130E-1,1.186442656E1
1.008387164E0,2.360854626E0,-9.709601402E0,-2.913531303E0,1.040858581E1
1.016595087E0,1.832237959E0,-8.560153008E0,-4.225585938E0,9.720539695E0
1.024804125E0,2.194666862E0,-7.255955219E0,-5.639278412E0,9.448116732E0
1.033012164E0,2.764392138E0,-4.657562256E0,-3.491737604E0,6.444143198E0
1.041217202E0,1.319597960E0,3.977257729E0,1.425947952E1,1.486245855E1
1.049432625E0,4.597758651E-1,1.433462429E1,1.317091560E1,1.947218183E1
1.057639241E0,2.143319845E0,3.416181946E1,1.286185741E1,3.656570941E1
1.065845318E0,3.338479757E0,5.168582153E1,-4.406183958E-1,5.179540268E1
1.074051510E0,7.764815092E-1,5.341232300E1,-1.114500880E0,5.342959184E1
1.082256279E0,-5.958078861E0,4.302685547E1,-1.420791149E-1,4.343764706E1
1.090489125E0,-7.528964996E0,2.626228714E1,-2.343477488E0,2.742052017E1
1.098695164E0,-3.899823904E0,1.598233223E1,-1.130993724E0,1.649007934E1
1.106902125E0,1.539365888E0,1.042586040E1,7.220551968E-1,1.056359675E1
1.115109971E0,5.787535667E0,6.928165436E0,1.508556962E0,9.152638391E0
1.123316510E0,5.642342567E0,5.128389359E0,-4.384028912E-2,7.624849443E0
1.131533933E0,3.783781052E0,4.224035263E0,-2.582258224E0,6.231174086E0
1.139741048E0,2.323247433E0,2.752489090E0,-6.208929062E0,7.178055093E0
1.147977856E0,8.777110577E-1,1.222368240E0,-8.585726738E0,8.716608540E0
1.156184125E0,-1.595790505E0,-5.838909149E-1,-8.136341095E0,8.311890420E0
1.164390856E0,-4.051562309E0,-2.334455967E0,-6.749656677E0,8.211133117E0
1.172615586E0,-6.817619801E0,-4.278436661E0,-4.496789455E0,9.219873937E0
1.180824317E0,-8.453128815E0,-6.242744446E0,-2.054986000E0,1.070748395E1
1.189031394E0,-9.330043793E0,-7.930480003E0,-5.707534552E-1,1.225838447E1
1.197238894E0,-9.151885986E0,-8.856365204E0,-1.627051830E-1,1.273651030E1
1.205445933E0,-7.990132332E0,-9.431321144E0,-5.472667813E-1,1.237301637E1
1.213662048E0,-6.848048210E0,-1.009297371E1,-1.158845663E0,1.225180827E1
1.221869663E0,-5.737701416E0,-1.065210819E1,-1.920651317E0,1.225061337E1
1.230076702E0,-4.377562046E0,-1.122364426E1,-2.236812592E0,1.225302291E1
1.238285009E0,-3.500308037E0,-1.165482044E1,-2.496027708E0,1.242244542E1
1.246492778E0,-3.121068954E0,-1.178030872E1,-2.109705925E0,1.236800728E1
1.254716317E0,-3.032916546E0,-1.187265301E1,-1.789112806E0,1.238383611E1
1.262924125E0,-3.383187771E0,-1.197191525E1,-1.801646113E0,1.257054664E1
1.271129778E0,-3.765619278E0,-1.230012894E1,-2.794392109E0,1.316365024E1
1.279338009E0,-3.881753206E0,-1.259458351E1,-3.208436489E0,1.356412940E1
1.287546201E0,-3.290752411E0,-1.290696621E1,-3.464775085E0,1.376312081E1
1.295763394E0,-3.654155731E0,-1.249913406E1,-2.679540873E0,1.329515497E1
1.303970163E0,-3.500749111E0,-1.231655502E1,-1.325686336E0,1.287284802E1
1.312177740E0,-3.037787199E0,-1.246990395E1,4.073415995E-1,1.284105068E1
1.320385240E0,-2.035464287E0,-1.245493221E1,1.562177539E0,1.271647946E1
1.328593394E0,-1.309195757E0,-1.197499275E1,7.599298954E-1,1.207029156E1
1.336817932E0,-9.510399699E-1,-1.154579067E1,-1.794762611E-1,1.158628374E1
1.345025855E0,-5.258829594E-1,-1.147980404E1,-7.439601421E-1,1.151589902E1
1.353233624E0,-2.912146449E-1,-1.156629658E1,-1.102592468E0,1.162238068E1
1.361441124E0,-7.842024565E-1,-1.199792862E1,-1.633357525E0,1.213396561E1
1.369649932E0,-1.542105913E0,-1.189808655E1,-1.156237483E0,1.205319208E1
1.377867855E0,-2.933824301E0,-1.081424999E1,-8.155986071E-1,1.123479101E1
1.386076009E0,-3.580282688E0,-9.753243446E0,-1.278472185E0,1.046798323E1
1.394313932E0,-3.905494213E0,-9.203714371E0,-2.314143181E0,1.026238286E1
1.402521201E0,-3.276576757E0,-8.306320190E0,-2.921937227E0,9.395138504E0
1.410726816E0,-3.369179964E0,-7.162720680E0,-2.740655899E0,8.376582593E0
1.418949662E0,-1.994875550E0,1.006303978E1,-1.236130810E1,1.606381760E1
1.427157239E0,-9.398417473E0,2.600523758E1,-2.724227333E1,3.881680163E1
1.435363970E0,-8.855851173E0,3.374593735E1,-2.638698387E1,4.374342585E1
1.443570162E0,-6.628885746E0,3.950290680E1,-1.529685783E1,4.287674931E1
1.451776701E0,-9.254137039E0,4.079456711E1,-7.681997776E0,4.253056369E1
1.459992316E0,-1.116379738E1,3.738049316E1,-2.996972561E0,3.912688955E1
1.468198932E0,-1.080432320E1,3.272776031E1,2.001047134E-1,3.446563124E1
1.476406355E0,-9.480510712E0,2.704624176E1,3.408378601E0,2.886167565E1
1.484614316E0,-6.541684151E0,2.161209106E1,7.074103355E0,2.366260869E1
1.492821739E0,2.731567621E-1,1.495914650E1,1.892651749E1,2.412599724E1
1.501047931E0,5.495593071E0,7.941437721E0,2.439929199E1,2.624106374E1
1.509257277E0,6.752844810E0,3.998279572E0,1.723313522E1,1.893589454E1
1.517466431E0,7.608145237E0,2.412867546E0,1.539500046E1,1.734104503E1
1.525676739E0,6.889145374E-1,-1.809343338E0,3.773105621E1,3.778069520E1
1.533884739E0,-9.372241974E0,3.438652039E0,1.258293056E1,1.606217261E1
1.542106200E0,-1.872527313E1,8.589895248E0,7.744222641E0,2.200897859E1
1.550315393E0,-1.022807884E1,8.528722763E0,9.528905869E0,1.637537040E1
1.558524739E0,5.227507114E0,2.382905960E0,1.429952431E1,1.541043370E1
1.566732662E0,1.106179237E1,-1.894503593E0,1.224673367E1,1.661128772E1
1.574941893E0,9.751392365E0,-3.815290451E0,4.937803745E0,1.157704626E1
1.583166162E0,7.124754429E0,-5.013820648E0,1.141643167E0,8.786573410E0
1.591376008E0,4.805172443E0,-5.361351013E0,1.596944332E-1,7.201338015E0
1.599585277E0,3.413022041E0,-5.387074471E0,4.183259010E-1,6.390953557E0
1.607793854E0,2.560570717E0,-5.870383263E0,1.575158596E0,6.595380705E0
1.616002316E0,2.468712330E0,-6.735671043E0,2.912103176E0,7.742360743E0
1.624221123E0,2.758997679E0,-7.821060181E0,2.547728539E0,8.675942096E0
1.632429969E0,4.601028442E0,-8.990565300E0,5.063409805E0,1.129769207E1
1.640668585E0,9.334114075E0,-1.136115646E1,1.336461449E1,1.986993916E1
1.648878239E0,9.915640831E0,-1.186640739E1,8.042675018E0,1.743032355E1
1.657087546E0,8.220497131E0,-1.132091331E1,6.742405891E-2,1.399086121E1
1.665313931E0,7.096277714E0,-1.086857128E1,-3.735449791E0,1.350690876E1
1.673522777E0,6.519268990E0,-1.030192661E1,-5.950846195E0,1.356624969E1
1.681733085E0,6.031311989E0,-9.592821121E0,-7.096249104E0,1.336995485E1
1.689943700E0,6.260967255E0,-8.842447281E0,-7.324155807E0,1.307791433E1
1.698152892E0,6.227939606E0,-8.142459869E0,-6.706163883E0,1.224987830E1
1.706372046E0,5.902238369E0,-6.642809868E0,-5.781493664E0,1.060136829E1
1.714580315E0,4.276138306E0,-2.660463333E0,1.147117853E0,5.165201189E0
1.722788238E0,4.709208012E-2,8.232559204E0,2.189825630E1,2.339467627E1
1.730996046E0,-2.022993565E0,1.297534466E1,1.476996422E1,1.976370195E1
1.739203930E0,-2.955614626E-1,1.579129028E1,6.559552193E0,1.710204462E1
1.747429277E0,9.317831039E0,2.642721558E1,6.990759373E-1,2.803049064E1
1.755638238E0,1.097782326E1,3.855315399E1,-8.880840302E0,4.105761331E1
1.763847161E0,2.191418171E0,4.375695801E1,-5.765545845E0,4.418953730E1
1.772057700E0,-1.093300533E1,4.274648666E1,-4.812636852E0,4.438416611E1
1.780266969E0,-1.722791100E1,3.147445297E1,-3.362282276E0,3.603813327E1
1.788486430E0,-1.504298306E1,1.835100174E1,-2.261295319E0,2.383619224E1
1.796695815E0,-6.348658562E0,6.945072174E0,-4.304296017E0,1.034729227E1
1.804905661E0,2.071061134E-1,1.725057602E0,-4.011122227E0,4.371249042E0
1.813116392E0,2.954695463E0,2.117347717E-1,-4.343059063E0,5.257111271E0
1.821326853E0,3.052261353E0,1.418209076E-1,-4.529360294E0,5.463654199E0
1.829554699E0,1.181475878E0,2.018241882E-1,-3.526790619E0,3.724898700E0
1.837765853E0,-1.298301697E0,-5.205888748E-1,-3.623252630E0,3.883884614E0
1.845976199E0,-3.928932905E0,-1.916316986E0,-4.555461884E0,6.313558231E0
1.854184892E0,-5.984248161E0,-3.761056423E0,-4.736753464E0,8.508443151E0
1.862391699E0,-7.029487610E0,-5.396974087E0,-5.161931515E0,1.025605003E1
1.870607584E0,-7.214576721E0,-6.771372795E0,-5.346244812E0,1.124650792E1
1.878815776E0,-7.283883572E0,-7.936701775E0,-5.734939575E0,1.220392260E1
1.887053430E0,-6.791788578E0,-8.936485291E0,-5.059249878E0,1.231199296E1
1.895261276E0,-6.315802097E0,-9.975966454E0,-4.299049854E0,1.256547223E1
1.903469545E0,-5.751624107E0,-1.070216560E1,-3.645710468E0,1.268498062E1
1.911693122E0,-5.233692646E0,-1.131744671E1,-3.616515398E0,1.298288575E1
1.919900853E0,-5.032083511E0,-1.151046276E1,-3.716188669E0,1.310048379E1
1.928108007E0,-5.718930244E0,-1.174994278E1,-3.968392372E0,1.365706617E1
1.936316468E0,-6.654137611E0,-1.200496101E1,-4.225479603E0,1.436145237E1
1.944523353E0,-7.459384441E0,-1.200501823E1,-4.669830322E0,1.488523410E1
1.952738045E0,-8.317016602E0,-1.195501709E1,-5.342305183E0,1.551242803E1
1.960943853E0,-8.940601349E0,-1.217889118E1,-5.299559593E0,1.601077996E1
1.969150891E0,-8.004885674E0,-1.237386227E1,-4.135606289E0,1.530666199E1
1.977357622E0,-5.665352345E0,-1.266402435E1,-1.878718376E0,1.400011831E1
1.985564814E0,-2.170833588E0,-1.397433853E1,4.749264717E0,1.491811554E1
1.993789506E0,4.134477615E0,-1.523867798E1,1.095217800E1,1.921617586E1
2.001995314E0,7.399059296E0,-1.289422512E1,1.103076077E1,1.851174770E1
2.010202506E0,2.001814842E0,-1.066725826E1,4.588325024E0,1.178347945E1
2.018409545E0,-1.212735415E0,-1.042709351E1,-1.185792685E0,1.056414267E1
2.026616891E0,-1.945661783E0,-1.099500084E1,-2.165679455E0,1.137390921E1
2.034834814E0,-2.267787933E0,-1.122917271E1,-2.491353989E0,1.172365244E1
2.043043814E0,-4.688333988E0,-1.032638550E1,-3.603748322E0,1.189965189E1
2.051297891E0,-6.125338078E0,-9.525446892E0,-3.707339525E0,1.191630276E1
2.059507545E0,-6.255802631E0,-8.911560059E0,-4.467167377E0,1.176888073E1
2.067716891E0,-5.718885422E0,-7.831590652E0,-6.211779594E0,1.151632182E1
2.075942237E0,-5.603939533E0,-6.018461227E0,-9.908172607E0,1.287625327E1
2.084150545E0,-5.952905178E0,2.415966988E0,-2.153521156E1,2.247307975E1
2.092358198E0,-7.496582985E0,1.738158226E1,-3.912907410E1,4.346725892E1
2.100565583E0,-6.355422974E0,2.456020355E1,-3.422740936E1,4.260411425E1
2.108772429E0,-8.946282387E0,2.928041077E1,-3.147746277E1,4.391137763E1
2.116990006E0,-1.728418350E1,3.092277908E1,-2.396926308E1,4.277250096E1
2.125197929E0,-2.629103851E1,3.275141144E1,-4.534842968E0,4.224261424E1
2.133433929E0,-2.717583084E1,3.264432144E1,2.245076656E0,4.253490183E1
2.141641160E0,-2.154976845E1,3.041957092E1,3.163490772E0,3.741323949E1
2.149848583E0,-1.209690285E1,2.719981766E1,4.767169476E0,3.014781989E1
2.158071775E0,-1.664770603E0,2.323748016E1,1.199575043E1,2.620400683E1
2.166278621E0,1.856674385E1,1.359046459E1,3.890125275E1,4.519659468E1
2.174484313E0,1.760654068E1,9.031653404E0,3.003135681E1,3.596447455E1
2.182690390E0,2.235825539E1,5.000784874E0,3.294993973E1,4.013225587E1
2.190894698E0,1.610189629E1,-1.858798981E0,3.743999863E1,4.079803543E1
2.199110890E0,-6.378364563E-1,1.260225582E1,-7.232987404E0,1.454440765E1
2.207320159E0,-5.010206223E0,1.095857620E1,5.799343109E0,1.337254423E1
2.215529390E0,3.434903860E0,8.877330780E0,2.011021614E1,2.224918784E1
2.223736582E0,1.047755051E1,3.082935333E0,1.492167568E1,1.849161864E1
2.231943890E0,9.366876602E0,-9.762573242E-2,1.305035233E0,9.457855202E0
2.240167544E0,7.107749939E0,-2.639179707E0,-1.910086155E0,7.818811152E0
2.248374313E0,5.836837769E0,-4.759387016E0,-7.155232430E-1,7.565210732E0
2.256579428E0,5.556033611E0,-7.111005783E0,2.839266062E0,9.460303616E0
2.264785044E0,7.377835274E0,-9.701212883E0,9.867903709E0,1.568188472E1
2.272991275E0,8.036853790E0,-1.082575417E1,1.144769001E1,1.768721512E1
2.281207005E0,7.119004250E0,-1.120543861E1,6.919940948E0,1.497089372E1
2.289412351E0,7.327175140E0,-1.123562241E1,2.738032103E0,1.369027122E1
2.297618121E0,7.669066906E0,-1.157084274E1,-2.180031538E-1,1.388331784E1
2.305823736E0,7.674928188E0,-1.156673431E1,-1.707023740E0,1.398598568E1
2.314028851E0,8.129465103E0,-1.187275124E1,-1.414652348E0,1.445861909E1
2.322250813E0,8.545631409E0,-1.214504814E1,-6.172895432E-1,1.486307697E1
2.330458274E0,8.348997116E0,-1.174532890E1,-5.355944633E-1,1.442031086E1
2.338666851E0,7.385698318E0,-1.113239098E1,-2.257880688E0,1.354904770E1
2.346874082E0,5.427676201E0,-1.030529213E1,-3.398749352E0,1.213302155E1
2.355080044E0,4.459244251E0,-8.934315681E0,-3.409817934E0,1.055147925E1
2.363296082E0,3.845783949E0,-7.642037392E0,-3.391853809E0,9.203013742E0
2.371502620E0,3.025479555E0,-5.656288147E0,-2.655560017E0,6.942558688E0
2.379739236E0,-2.450158596E-1,8.611221313E-1,1.184871101E1,1.188248782E1
2.387945582E0,-5.462952137E0,1.120265007E1,1.494326305E1,1.945878530E1
2.396152813E0,-6.104124069E0,1.701339340E1,1.490177345E1,2.342602693E1
2.404378813E0,1.459443092E0,2.644054604E1,5.475965023E0,2.704105475E1
2.412585659E0,1.172038364E1,4.206072235E1,-4.294144630E0,4.387381264E1
2.420792582E0,2.887966156E0,5.064958191E1,-7.311626673E-1,5.073711753E1
2.429002505E0,-1.111382294E1,4.896154785E1,-9.004080296E-1,5.021514675E1
2.437209812E0,-1.681224251E1,4.006749725E1,-4.978191376E0,4.373600603E1
2.445435505E0,-1.776596642E1,2.567316246E1,-3.597826004E0,3.142745910E1
2.453643274E0,-7.696559429E0,1.163902283E1,-5.296165943E-1,1.396368050E1
2.461850312E0,-4.603408575E-1,4.054289818E0,-3.045789242E0,5.091759199E0
2.470057235E0,1.964126706E0,-3.060121536E-1,-4.914975643E0,5.301737708E0
2.478263774E0,7.728118896E-1,-1.847561836E0,-6.302570343E0,6.613101835E0
2.486487389E0,-1.177564621E0,-2.409339428E0,-6.342117786E0,6.885784845E0
2.494693581E0,-3.765845776E0,-2.774345398E0,-4.628529549E0,6.580415836E0
2.502900004E0,-5.983314037E0,-3.773192406E0,-4.008712292E0,8.130608959E0
2.511107043E0,-7.532089233E0,-5.124678135E0,-4.049994946E0,9.969812098E0
2.519314774E0,-7.845941067E0,-6.607789516E0,-4.628340721E0,1.125358660E1
2.527531543E0,-7.227972984E0,-7.820365906E0,-5.289888382E0,1.189052713E1
2.535739081E0,-5.994411469E0,-8.840885162E0,-6.012638569E0,1.225748922E1
2.543946389E0,-5.358205795E0,-9.760833740E0,-6.097942352E0,1.269524106E1
2.552154350E0,-4.308736324E0,-1.071902561E1,-5.188811302E0,1.266437845E1
2.560361273E0,-3.562600613E0,-1.128827000E1,-4.183385849E0,1.255459596E1
2.568586697E0,-3.260833502E0,-1.172259712E1,-3.935740471E0,1.278836860E1
2.576793773E0,-3.022793770E0,-1.216438103E1,-3.463556290E0,1.300406360E1
2.584998966E0,-3.162553310E0,-1.263634491E1,-3.508301020E0,1.349026064E1
2.593205427E0,-3.742111444E0,-1.261907578E1,-4.534831047E0,1.392153598E1
2.601412619E0,-4.860921383E0,-1.278583050E1,-7.077582359E0,1.540123989E1
2.609628966E0,-6.399119854E0,-1.284151840E1,-7.176544189E0,1.604232266E1
2.617837196E0,-7.748263359E0,-1.255673695E1,-7.704758644E0,1.664543582E1
2.626072312E0,-8.120170593E0,-1.266064644E1,-7.265296459E0,1.670370232E1
2.634278619E0,-7.554729462E0,-1.280749893E1,-7.173956871E0,1.650974328E1
2.642485196E0,-5.535382748E0,-1.264660168E1,-5.212699413E0,1.475632852E1
2.650707850E0,-2.291244984E0,-1.247581863E1,-9.010534286E-1,1.271643627E1
2.658915658E0,7.561252594E0,-1.369491768E1,9.225934029E0,1.816152994E1
2.667122927E0,1.397241592E1,-1.242300034E1,1.166036987E1,2.203459938E1
2.675328350E0,1.028226566E1,-1.146383095E1,7.227709293E0,1.701129592E1
2.683535196E0,5.181564331E0,-1.082521343E1,3.662124157E0,1.254770928E1
2.691750350E0,2.660098553E0,-1.132114983E1,-9.862816334E-1,1.167121712E1
2.699955542E0,1.432401896E0,-1.183494759E1,-3.909182549E0,1.254589446E1
2.708161619E0,8.936010599E-1,-1.217819214E1,-6.544960976E0,1.385436396E1
2.716367619E0,-7.950651646E-1,-1.197743130E1,-7.693699360E0,1.425776977E1
2.724572042E0,-3.558090925E0,-1.103798866E1,-7.033560753E0,1.356348707E1
2.732789234E0,-5.427275658E0,-1.068212891E1,-6.738283157E0,1.374655080E1
2.740993234E0,-7.847856998E0,-1.020671368E1,-8.013628006E0,1.516522658E1
2.749198042E0,-1.160544777E1,-8.300713539E0,-1.164769363E1,1.841893130E1
2.757403311E0,-1.629308510E1,-4.827718735E0,-1.665553665E1,2.379450339E1
2.765608311E0,-2.232279205E1,-2.164459229E-2,-1.833376312E1,2.888657792E1
2.773831311E0,-2.458646393E1,5.917104721E0,-1.158242321E1,2.781472387E1
2.782037080E0,-3.073594475E1,2.425694275E1,-2.022693253E1,4.407069741E1
2.790244003E0,-3.808644772E0,3.177303696E1,-1.755599976E1,3.649992849E1
2.798450696E0,7.668298721E0,3.625965118E1,-2.287591934E1,4.355310316E1
2.806656042E0,-1.791286588E0,3.624939346E1,-2.688874245E1,4.516892410E1
2.814875619E0,-1.565601921E1,3.596598053E1,-2.142000389E1,4.469316793E1
2.823081119E0,-2.012805557E1,3.230213165E1,-8.850776672E0,3.907560080E1
2.831287157E0,-1.747356606E1,2.751191330E1,3.323500395E0,3.276089954E1
2.839492888E0,2.580198526E0,1.881253052E1,2.520471382E1,3.155703294E1
2.847699695E0,6.205444336E0,1.364679146E1,2.744333458E1,3.127105801E1
2.855913465E0,-6.816506386E0,1.738071442E1,7.766571522E0,2.022062378E1
2.864121234E0,8.669834137E-1,1.525194168E1,8.624241829E0,1.754283137E1
2.872358503E0,9.772648811E0,7.050018311E0,6.616194153E1,6.725035264E1
2.880566503E0,-5.673693180E0,3.894836426E0,3.148083496E1,3.222426904E1
2.888773695E0,-1.462012386E1,1.061106300E1,7.500924110E0,1.956033083E1
2.896994695E0,-1.007535934E1,8.353739738E0,1.685218430E1,2.133761817E1
2.905200503E0,4.574989796E0,4.980211258E0,1.187969685E1,1.366968299E1
2.913406464E0,9.536482811E0,1.518394470E0,-8.023023605E-2,9.656938597E0
2.921612541E0,7.760782242E0,-1.596700668E0,-3.689683437E0,8.740306510E0
2.929820272E0,5.267649174E0,-4.040826797E0,-3.516769409E0,7.512927266E0
2.938031003E0,4.464767456E0,-6.141342163E0,-2.578640938E0,8.018704452E0
2.946237118E0,4.369968891E0,-7.912189007E0,-1.336383104E0,9.137028116E0
2.954443234E0,4.603999138E0,-9.080034256E0,-7.663427591E-1,1.020936391E1
2.962650118E0,4.524371147E0,-9.592199326E0,-3.610690832E-1,1.061181384E1
2.970857772E0,4.381935596E0,-9.736802101E0,4.276597500E-2,1.067747646E1
2.979078849E0,5.769994259E0,-1.027078819E1,3.706465006E0,1.234989096E1
2.987286464E0,9.539268494E0,-1.172791100E1,1.114220715E1,1.878005111E1
2.995494733E0,1.070418358E1,-1.235793686E1,1.192382812E1,2.023550905E1
3.003702503E0,1.176151180E1,-1.266844749E1,1.040460682E1,2.017618807E1
3.011909079E0,1.256924438E1,-1.230375481E1,5.474570751E0,1.842116206E1
3.020120426E0,1.211567211E1,-1.088581848E1,-1.921286106E0,1.640066752E1
3.028328426E0,1.044741440E1,-9.476205826E0,-5.304136276E0,1.506920058E1
3.036537656E0,8.372972488E0,-8.812491417E0,-6.132694244E0,1.361530800E1
3.044746502E0,5.586564541E0,-8.539230347E0,-4.043224812E0,1.097614801E1
3.052955579E0,3.140992880E0,-8.297118187E0,-1.712554455E0,9.035532593E0
3.061177079E0,1.819938660E0,-8.027630806E0,-2.100679398E0,8.495168451E0
3.069385079E0,1.326361418E0,-7.313911438E0,-2.294385195E0,7.779250514E0
3.077593310E0,1.050857544E0,-6.406247616E0,-2.819935322E0,7.077877176E0
3.085800771E0,8.585785627E-1,-4.506201267E0,-5.153138638E0,6.899119134E0
3.094008118E0,-1.740052462E0,7.939691544E-1,-1.187200785E0,2.251136444E0
3.102221656E0,-1.075456238E1,1.529045200E1,2.396340942E1,3.039249127E1
3.110430156E0,-1.055378151E1,2.620157051E1,8.446460724E0,2.948300019E1
3.118668502E0,7.101384640E0,4.569317245E1,-3.178899765E0,4.635084764E1
3.126878464E0,1.359501457E1,6.775038910E1,-9.893251419E0,6.980555900E1
3.135088194E0,3.400982380E0,6.145858383E1,1.723244667E0,6.157673083E1
3.143332040E0,-5.859657288E0,4.200551605E1,2.494293213E0,4.248553237E1
3.151541733E0,-9.110778809E0,2.305126953E1,2.099019289E0,2.487515225E1
3.159751464E0,-1.173307228E1,9.469193459E0,6.182640195E-1,1.509015773E1
3.167962694E0,-1.014868069E1,2.677726746E-1,2.666226029E-1,1.015571315E1
3.176172694E0,-7.108363152E0,-4.186700821E0,-2.090113640E0,8.510338741E0
3.184386963E0,-4.459746361E0,-6.093314648E0,-4.347497940E0,8.713125693E0
3.192595810E0,-2.189036369E0,-6.896638870E0,-5.890137196E0,9.330017370E0
3.200804963E0,-1.263359547E0,-7.365354538E0,-2.993971348E0,8.050365783E0
3.209013809E0,-2.036719799E0,-7.793835640E0,-1.141503453E0,8.136039064E0
3.217222156E0,-3.855890274E0,-8.192781448E0,-5.259989500E-1,9.070073460E0
3.225443271E0,-5.895126343E0,-8.466133118E0,-1.052438736E0,1.036993500E1
3.233651963E0,-7.251429081E0,-8.615200043E0,-1.839624286E0,1.141004439E1
3.241860502E0,-7.417000294E0,-8.861027718E0,-2.979450226E0,1.193343325E1
3.250067232E0,-6.625996590E0,-9.342648506E0,-3.686284542E0,1.203235661E1
3.258275617E0,-5.848082066E0,-1.001019192E1,-3.972272396E0,1.225491551E1
3.266489925E0,-4.990808487E0,-1.063342094E1,-3.479530334E0,1.225091595E1
3.274697886E0,-4.225157738E0,-1.109611034E1,-3.153526068E0,1.228496436E1
3.282905886E0,-3.805402756E0,-1.139399242E1,-2.740815163E0,1.232137254E1
3.291114809E0,-3.493826389E0,-1.172658730E1,-2.730536938E0,1.253696552E1
3.299322501E0,-3.698430061E0,-1.185221863E1,-2.748192787E0,1.271636878E1
3.307544924E0,-4.077470779E0,-1.217772770E1,-2.657284021E0,1.311426621E1
3.315753309E0,-4.412661076E0,-1.253843498E1,-2.985124826E0,1.362332191E1
3.323961463E0,-4.236814022E0,-1.283102417E1,-2.948354244E0,1.383034949E1
3.332168963E0,-3.938545942E0,-1.253258705E1,-2.879340887E0,1.344873549E1
3.340376117E0,-3.571925640E0,-1.200964737E1,-2.493911743E0,1.277536217E1
3.348590155E0,-3.323951721E0,-1.148165512E1,-1.417367935E0,1.203685969E1
3.356799578E0,-1.351947784E0,-1.083894253E1,8.350636959E-1,1.095480576E1
3.365039463E0,1.368785501E0,-1.025658703E1,3.698903084E0,1.098876860E1
3.373248040E0,1.031574726E0,-1.035081482E1,3.019988537E0,1.083161320E1
3.381456693E0,6.064298153E-1,-1.042562675E1,2.567570210E-1,1.044640486E1
3.389678809E0,9.617273211E-1,-1.039332962E1,-1.249660969E0,1.051227247E1
3.397886501E0,1.465059400E0,-1.068997574E1,-1.682734489E0,1.092032855E1
3.406093309E0,1.015615582E0,-1.088934803E1,-2.448043108E0,1.120724277E1
3.414298963E0,1.135357916E-1,-1.108226013E1,-3.446114302E0,1.160625193E1
3.422505116E0,-7.375619411E-1,-1.097688770E1,-3.615690470E0,1.158055607E1
3.430718732E0,-1.788138390E0,-9.698355675E0,-5.552423477E0,1.131746209E1
3.438927462E0,-4.401048660E0,-6.988990784E0,-9.678434372E0,1.272349454E1
3.447136155E0,-4.665458679E0,-5.608527660E0,-7.854386806E0,1.071977049E1
3.455345193E0,-6.468582153E0,1.083687782E0,-7.436825275E0,9.915810832E0
3.463553385E0,-2.820081902E1,2.794026566E1,-2.942434883E1,4.941393470E1
3.471791193E0,-2.128750038E1,3.186193466E1,-2.157369614E1,4.397459400E1
3.479999232E0,-8.199487686E0,3.285610962E1,-1.382590580E1,3.657746859E1
3.488207424E0,-4.096439362E0,3.075358582E1,-9.117482185E0,3.233716650E1
3.496416347E0,-9.005509377E0,2.875509071E1,-7.407146454E0,3.102934514E1
3.504624155E0,-1.270850563E1,2.843923378E1,-4.620064735E0,3.149033394E1
3.512838424E0,-1.277584457E1,2.675038147E1,-9.782903194E-1,2.966078497E1
3.521047501E0,-9.806256294E0,2.307340240E1,-4.396733046E-1,2.507464603E1
3.529255654E0,-6.681501389E0,1.955553436E1,7.912871838E-1,2.068060735E1
3.537464616E0,-2.175883770E0,1.428991032E1,3.587615252E0,1.489318603E1
3.545672808E0,4.102605343E0,9.045077324E0,1.199368572E1,1.557219611E1
3.553894308E0,8.293666840E0,5.104576111E0,1.843506432E1,2.084929743E1
3.562102500E0,5.966119766E0,4.151729584E0,1.437553310E1,1.610861247E1
3.570310539E0,5.195588589E0,3.553630829E0,1.262504292E1,1.410723720E1
3.578519077E0,4.526875496E0,3.216071129E0,1.753525925E1,1.839350516E1
3.586728077E0,-1.633458853E0,-5.298377514E0,4.232768631E1,4.268927290E1
3.594943885E0,-1.079922962E1,5.880984306E0,-3.539078951E0,1.279587499E1
3.603153116E0,-1.290979099E1,8.906014442E0,7.944489956E0,1.758108977E1
3.611391539E0,-4.503079414E0,5.681178093E0,2.067934799E1,2.191321387E1
3.619599654E0,4.016363621E0,1.477343559E0,1.277772522E1,1.347531011E1
3.627807769E0,6.854453087E0,-1.080524445E0,3.344290257E-1,6.947150709E0
3.636029962E0,6.024831772E0,-3.619980812E0,-3.468211889E0,7.837815555E0
3.644238385E0,5.134932518E0,-6.045766354E0,-2.854232073E0,8.430033422E0
3.652446577E0,4.375339985E0,-7.580924988E0,-2.018227816E0,8.982609152E0
3.660654692E0,4.057916641E0,-8.852894783E0,-1.258724689E0,9.819614114E0
3.668862346E0,4.165542603E0,-9.649299622E0,-9.902632236E-1,1.055657850E1
3.677077769E0,4.089872360E0,-9.808770180E0,5.278443098E-1,1.064037819E1
3.685287808E0,5.735707283E0,-1.029515839E1,4.321867466E0,1.255257594E1
3.693497577E0,6.086280823E0,-1.068367195E1,6.525853157E0,1.392014440E1
3.701707769E0,7.403793335E0,-1.162697506E1,5.782337189E0,1.494784694E1
3.709917269E0,9.193161011E0,-1.238202095E1,6.667772770E0,1.680142392E1
3.718139500E0,1.020915699E1,-1.276512527E1,3.951567888E0,1.681636698E1
3.726347231E0,1.098533630E1,-1.259706306E1,1.237230659E0,1.675990308E1
3.734555077E0,1.073603916E1,-1.153959846E1,-1.194670916E0,1.580671086E1
3.742762115E0,8.952026367E0,-1.066163158E1,-2.236275434E0,1.410000326E1
3.750968654E0,6.444258690E0,-9.798539162E0,-1.999370575E0,1.189694593E1
3.759180230E0,3.552693129E0,-9.027663231E0,-1.439562917E0,9.807786359E0
3.767387153E0,2.336363316E0,-8.598927498E0,-2.534577608E0,9.264136836E0
3.775593615E0,2.164181232E0,-8.120344162E0,-2.722051144E0,8.833642066E0
3.783800615E0,2.035306931E0,-7.364161968E0,-2.973897934E0,8.198623343E0
3.792006076E0,2.311020851E0,-5.628894806E0,-3.934335709E0,7.245983134E0
3.800226307E0,1.885798931E0,1.979942322E-1,3.145069361E0,3.672451580E0
3.808432307E0,-4.566019058E0,1.693867493E1,1.968114662E1,2.636502931E1
3.816638346E0,-3.043532372E0,3.060602951E1,1.059816170E1,3.253172549E1
3.824845307E0,9.222627640E0,5.805528259E1,-1.186703968E1,5.996915314E1
3.833052269E0,5.755376816E0,6.850594330E1,-8.245591164E0,6.924000580E1
3.841282461E0,-5.660306931E0,5.961858368E1,3.331096172E0,5.997925305E1
3.849491269E0,-1.050425434E1,4.486044312E1,4.940221786E0,4.633793810E1
3.857731345E0,-1.088500214E1,2.222543716E1,2.986067772E0,2.492729286E1
3.865939999E0,-6.727488041E0,7.274201393E0,2.066268682E0,1.012139158E1
3.874148692E0,-3.321120262E0,1.256561279E-2,8.583651781E-1,3.430275276E0
3.882370730E0,-8.291235566E-1,-2.621218204E0,-1.842224240E0,3.309383764E0
3.890580922E0,1.059432149E0,-3.519371033E0,-4.327960014E0,5.677993204E0
3.898790345E0,1.312329054E0,-3.957789421E0,-4.960569382E0,6.480243301E0
3.906999884E0,-5.246460438E-2,-4.360025883E0,-4.493635178E0,6.261416401E0
3.915208653E0,-3.744683266E0,-4.673437119E0,-2.967506647E0,6.683544192E0
3.923423114E0,-6.355237007E0,-5.424073696E0,-2.683994770E0,8.775730215E0
3.931632076E0,-7.934995651E0,-6.198184013E0,-3.141980648E0,1.054768617E1
3.939841576E0,-8.572336197E0,-7.168642521E0,-3.377307892E0,1.167392788E1
3.948050345E0,-7.788895607E0,-8.216413498E0,-3.752845287E0,1.192728776E1
3.956259807E0,-7.489986420E0,-8.895277977E0,-4.067216873E0,1.231942044E1
3.964482653E0,-6.943882942E0,-9.534142494E0,-4.371923447E0,1.257899432E1
3.972693460E0,-5.631816387E0,-1.008464432E1,-3.762113094E0,1.214787643E1
3.980905268E0,-4.738547802E0,-1.068008804E1,-2.911489010E0,1.204138215E1
3.989114114E0,-4.037652493E0,-1.162416267E1,-2.820806980E0,1.262460881E1
3.997321576E0,-4.115712643E0,-1.225301456E1,-3.714910269E0,1.344901538E1
4.005535306E0,-4.971605301E0,-1.271442509E1,-4.404717445E0,1.434485972E1
4.013742691E0,-6.246140003E0,-1.273479462E1,-4.941515923E0,1.502024762E1
4.021949999E0,-6.907976627E0,-1.292978668E1,-4.893620491E0,1.545467716E1
4.030158229E0,-7.936741352E0,-1.302681828E1,-4.611469269E0,1.593598150E1
4.038366191E0,-7.487605572E0,-1.303802681E1,-3.424525023E0,1.542017354E1
4.046589383E0,-8.039216995E0,-1.308004856E1,-4.154088974E0,1.590512922E1
4.054797806E0,-7.279827595E0,-1.225218296E1,-3.314870358E0,1.463216466E1
4.063006575E0,-5.184942245E0,-1.202733040E1,-5.275094509E-1,1.310795822E1
4.071216691E0,-1.937517524E-1,-1.135907078E1,3.497972012E0,1.188704492E1
4.079427883E0,2.154600525E1,-1.033223820E1,1.648770714E1,2.903153415E1
4.087643537E0,1.073894882E1,-1.063379574E1,9.080195427E0,1.763101196E1
4.095852460E0,3.579985619E0,-1.058464909E1,3.168468714E0,1.161422780E1
4.104091306E0,7.717281580E-1,-1.102380371E1,-6.263136864E-2,1.105096083E1
4.112300729E0,3.341214359E-2,-1.148156738E1,-1.869892478E0,1.163288459E1
4.120509729E0,-2.045225620E0,-1.168219471E1,-4.329659462E0,1.262547314E1
4.128734268E0,-4.651779175E0,-1.133472633E1,-5.888199806E0,1.359360024E1
4.136943691E0,-5.990382671E0,-1.056443977E1,-5.301256657E0,1.325124124E1
4.145153460E0,-7.518187523E0,-9.993567467E0,-5.563581944E0,1.368751177E1
4.153361383E0,-9.623505592E0,-8.548022270E0,-7.272334576E0,1.478402499E1
4.161570152E0,-1.022414112E1,-7.111707211E0,-9.344042778E0,1.556986116E1
4.169785190E0,-1.102346134E1,-5.352119923E0,-1.079281425E1,1.632932109E1
4.177992613E0,-1.274301910E1,-1.992517471E0,-1.141359234E1,1.722279744E1
4.186199921E0,-2.183305168E1,1.046090221E1,-1.808118057E1,3.021658008E1
4.194406575E0,-2.466365242E1,2.261922836E1,-1.816470337E1,3.807731202E1
4.202613690E0,-1.003456402E1,3.042295837E1,-2.458466911E1,4.038136732E1
4.210835190E0,-5.804232597E0,3.285588455E1,-2.894017029E1,4.416708868E1
4.219042575E0,-1.363476467E1,3.118119431E1,-2.764304733E1,4.384417580E1
4.227250344E0,-1.726573372E1,2.816560936E1,-1.944541168E1,3.833446422E1
4.235458306E0,-1.583281803E1,2.346169853E1,-8.618964195E0,2.958742923E1
4.243666690E0,-1.359589195E1,1.980585098E1,-1.673230767E0,2.408152222E1
4.251880882E0,-1.091977310E1,1.760578918E1,4.067183971E0,2.111272704E1
4.260089882E0,-1.598044395E0,1.560879993E1,1.409209442E1,2.108970143E1
4.268298113E0,6.188968182E0,1.442247486E1,2.554078484E1,2.997737144E1
4.276507075E0,-4.264990807E0,1.823109055E1,1.336386871E1,2.300338662E1
4.284715190E0,1.084890366E-1,1.781069946E1,1.798773193E1,2.531385560E1
4.292935690E0,1.479070854E1,1.372743034E1,4.973811340E1,5.367576108E1
4.301143151E0,8.656303883E-1,6.524241447E0,6.287115479E1,6.321469091E1
4.309350805E0,-1.492519569E1,1.413458729E1,-7.878499031E0,2.201405849E1
4.317559190E0,-1.451799583E1,1.538328171E1,1.479942131E1,2.581550755E1
4.325768344E0,5.277047634E0,1.103432751E1,-1.336789131E0,1.230408958E1
4.333981497E0,1.347368431E1,4.117938042E0,-7.884551048E0,1.614508371E1
4.342188728E0,1.310088921E1,-1.538524628E0,-5.061437607E0,1.412864136E1
4.350427536E0,9.682041168E0,-4.813886642E0,-1.751333714E0,1.095365672E1
4.358636805E0,8.003926277E0,-6.599630833E0,1.709986091E0,1.051389630E1
4.366846805E0,8.096709251E0,-8.241202354E0,5.849828720E0,1.294969548E1
4.375071113E0,8.114702225E0,-9.301555634E0,7.729971409E0,1.456433271E1
4.383281959E0,7.286242485E0,-9.599804878E0,6.894480228E0,1.388450362E1
4.391493574E0,7.487309456E0,-9.973936081E0,6.644406319E0,1.413107707E1
4.399704613E0,8.064781189E0,-1.037733936E1,5.789338589E0,1.436127812E1
4.407915305E0,8.998844147E0,-1.061320972E1,5.108122826E0,1.482269663E1
4.416131266E0,9.647456169E0,-1.066338539E1,3.290176153E0,1.475149001E1
4.424340728E0,1.024172401E1,-1.047745323E1,1.077926755E0,1.469121721E1
4.432550497E0,1.030263901E1,-9.693437576E0,-7.034351826E-1,1.416340085E1
4.440760074E0,1.051861763E1,-9.109150887E0,-1.832811117E0,1.403485459E1
4.448969305E0,1.000336075E1,-8.757830620E0,-2.489914894E0,1.352651099E1
4.457193228E0,8.777506828E0,-8.387402534E0,-2.741905689E0,1.244633256E1
4.465403535E0,6.469912529E0,-7.375596523E0,-2.842108011E0,1.021453720E1
4.473614189E0,4.206391335E0,-6.131011963E0,-3.308908463E0,8.138299021E0
4.481824574E0,2.575882435E0,-5.471830845E0,-3.541959524E0,7.008678933E0
4.490034266E0,1.777120113E0,-4.305345058E0,-3.658178091E0,5.922534839E0
4.498248458E0,-4.863753319E-1,-2.333936691E0,-3.754118919E0,4.447159802E0
4.506456881E0,-2.777743816E0,-6.433963776E-2,-3.347748280E0,4.350565347E0
4.514665074E0,-1.136810207E1,5.906442642E0,1.585920525E1,2.038710868E1
4.522874151E0,-1.444028282E1,9.393054008E0,1.967742538E1,2.615248174E1
4.531082728E0,-7.009903908E0,7.916786194E0,5.296542168E0,1.182656397E1
4.539303881E0,2.062915564E0,1.194339371E1,-8.464943886E0,1.478362435E1
4.547510881E0,1.585535145E1,2.291833878E1,-1.251608658E1,3.054987471E1
4.555718112E0,2.320462990E1,4.115999222E1,-1.169233990E1,4.867556492E1
4.563924074E0,1.470270824E1,4.825951004E1,2.160516262E0,5.049572031E1
4.572129843E0,4.016752243E-1,4.605350113E1,8.537296295E0,4.683985202E1
4.580362227E0,-3.114977837E0,3.216707993E1,3.394078493E0,3.249529022E1
4.588567458E0,-5.377518654E0,1.962629318E1,2.279672384E0,2.047696260E1
4.596802881E0,-5.729300499E0,9.979598999E0,7.659402370E0,1.382330370E1
4.605007727E0,-3.869134903E0,5.754880905E0,2.244651318E0,7.288848926E0
4.613214227E0,-4.341238976E0,1.646419525E0,-3.066833258E0,5.564397481E0
4.621435535E0,-6.255569458E0,-2.711486816E0,-3.120099783E0,7.497955232E0
4.629642266E0,-8.667131424E0,-4.659298897E0,-8.110879660E-1,9.873504799E0
4.637849958E0,-1.089862347E1,-4.828907967E0,1.768418550E-1,1.192181273E1
4.646058227E0,-1.063279247E1,-5.509173870E0,-1.982458830E-1,1.197691838E1
4.654266689E0,-9.079212189E0,-6.737628937E0,-1.133975506E0,1.136281823E1
4.662480073E0,-7.461378098E0,-7.837871552E0,-2.595768452E0,1.112845036E1
4.670688342E0,-6.118006706E0,-8.964691162E0,-3.190266132E0,1.131253693E1
4.678895304E0,-5.446664810E0,-1.012506390E1,-3.593156099E0,1.204549074E1
4.687103996E0,-4.807255268E0,-1.115226078E1,-3.161823273E0,1.254909360E1
4.695312458E0,-4.478588104E0,-1.194698048E1,-2.510071993E0,1.300340553E1
4.703534881E0,-4.109326363E0,-1.239532089E1,-2.463500261E0,1.328906982E1
4.711742650E0,-4.016396523E0,-1.255787182E1,-2.681926250E0,1.345452764E1
4.719950688E0,-3.774113417E0,-1.277920818E1,-2.448275805E0,1.354792044E1
4.728157996E0,-3.504581690E0,-1.300403690E1,-2.268033266E0,1.365763682E1
4.736364265E0,-3.568099976E0,-1.332530975E1,-2.634203434E0,1.404401101E1
4.744576804E0,-4.051087379E0,-1.335132980E1,-3.470338106E0,1.437750198E1
4.752784419E0,-4.497335434E0,-1.313934326E1,-4.553545475E0,1.461516828E1
4.760992842E0,-4.646905899E0,-1.324126625E1,-5.364893436E0,1.502354645E1
4.769200804E0,-4.319317818E0,-1.300226879E1,-4.434899330E0,1.440082748E1
4.777408650E0,-3.462704659E0,-1.219273472E1,-3.318495274E0,1.310211870E1
4.785628457E0,-1.712836027E0,-1.150477219E1,-2.059981346E0,1.181258284E1
4.793833996E0,-9.507336617E-1,-1.125050354E1,-9.430458546E-1,1.132991879E1
4.802041880E0,-9.799539298E-2,-1.095449638E1,-3.383071423E-1,1.096015720E1
4.810248919E0,5.204407573E-1,-1.082545853E1,-8.415629864E-1,1.087058596E1
4.818455688E0,5.362833738E-1,-1.056935024E1,-1.461600542E0,1.068340023E1
4.826668842E0,5.305307508E-1,-1.029871750E1,-2.708333969E0,1.066208788E1
4.834876226E0,1.166349202E-1,-1.020356941E1,-2.994045973E0,1.063441318E1
4.843113534E0,-5.696560740E-1,-1.016914272E1,-2.717965126E0,1.054150398E1
4.851321649E0,-1.865520597E0,-9.211367607E0,-1.947435141E0,9.598018750E0
4.859529572E0,-3.297410965E0,-8.389019966E0,-2.293830633E0,9.301087788E0
4.867749419E0,-4.819088459E0,-7.162296295E0,-6.741873741E0,1.095330833E1
4.875957995E0,-7.496923447E0,-4.176311493E0,-1.250179100E1,1.516377978E1
4.884166957E0,-7.582221031E0,-1.305109024E0,-1.110685062E1,1.351131067E1
4.892375226E0,-6.664712429E0,2.350596428E0,-6.721498013E0,9.753062640E0
4.900582495E0,-9.324878693E0,6.798632622E0,-5.956511497E0,1.298671619E1
4.908811457E0,-2.078513145E1,2.833933830E1,-1.927049255E1,4.008106371E1
4.917018149E0,-1.332288361E1,3.274899292E1,-2.374366570E1,4.258823107E1
4.925223957E0,-1.050367737E1,3.566752625E1,-2.803789139E1,4.656847668E1
4.933429918E0,-1.016046715E1,3.897629929E1,-2.889491272E1,4.957119103E1
4.941636380E0,-1.151308537E1,3.895105743E1,-2.191223526E1,4.615064533E1
4.949856649E0,-1.452487659E1,3.641532898E1,-1.294355679E1,4.128660663E1
4.958066034E0,-1.369176102E1,3.194662094E1,-3.861036777E0,3.497082376E1
4.966275418E0,-9.625726700E0,2.542802048E1,2.082242012E0,2.726856380E1
4.974484572E0,2.394603014E0,1.311963940E1,5.787197113E1,5.938875402E1
4.982693110E0,7.374191284E-2,7.792920113E0,3.941575241E1,4.017880760E1
4.990906803E0,-6.127450466E-1,6.612373352E0,2.997849274E1,3.070519442E1
4.999115187E0,-3.558782101E0,-6.458440781E0,6.514998627E1,6.556597515E1
5.007323687E0,-8.641592026E0,4.852921486E0,3.537642717E0,1.052344410E1
5.015531572E0,-1.582095623E1,9.179944992E0,4.338304520E0,1.879880135E1
5.023739110E0,-8.005688667E0,9.086476326E0,1.154385567E1,1.673068160E1
5.031959572E0,9.229156971E-1,5.877961159E0,1.143782425E1,1.289286719E1
5.040167341E0,6.246407509E0,6.396265030E-1,1.153391457E1,1.313232325E1
5.048373110E0,7.390573502E0,-1.838279247E0,4.842274666E0,9.024825273E0
5.056579264E0,5.622063637E0,-3.820236206E0,-1.398825645E0,6.939633808E0
5.064786533E0,3.995033741E0,-5.685852051E0,-2.234146833E0,7.299357520E0
5.073000264E0,3.613346100E0,-7.204367161E0,-8.247160912E-1,8.101810468E0
5.081207879E0,3.817898273E0,-8.538647652E0,2.401912212E-1,9.356417197E0
5.089446495E0,4.016036510E0,-9.449412346E0,9.201397896E-1,1.030856926E1
5.097655648E0,4.501641273E0,-1.004832840E1,3.453579903E0,1.153953604E1
5.105862456E0,6.491359234E0,-1.124425888E1,1.188381290E1,1.760102587E1
5.114082456E0,6.199585438E0,-1.086903667E1,5.626667976E0,1.371970154E1
5.122289187E0,5.345645428E0,-1.053864479E1,1.760010719E0,1.194724223E1
5.130496110E0,8.665663719E0,-1.225129509E1,7.838963032E0,1.693036622E1
5.138702956E0,1.029614544E1,-1.297675705E1,6.827373505E0,1.791702719E1
5.146911148E0,9.252660751E0,-1.241300201E1,3.488253117E0,1.587016886E1
5.155124841E0,7.678850174E0,-1.148271370E1,-3.745546341E-1,1.381874615E1
5.163331956E0,6.498146057E0,-1.076009369E1,-2.477876663E0,1.281192379E1
5.171539725E0,5.070583344E0,-9.949646950E0,-3.801167488E0,1.179640471E1
5.179746956E0,3.941969395E0,-8.865379333E0,-4.085936546E0,1.052753299E1
5.187955263E0,3.391081572E0,-7.941229820E0,-4.514395714E0,9.743835690E0
5.196177302E0,3.211008549E0,-7.127460480E0,-4.619487762E0,9.080249775E0
5.204385994E0,2.723500252E0,-5.722740173E0,-5.516062260E0,8.402032585E0
5.212595071E0,2.189347982E0,-2.918326855E0,-6.101893902E0,7.109359001E0
5.220801840E0,-5.387315273E0,9.280133247E0,1.998865891E1,2.268679183E1
5.229009263E0,-8.499159813E0,1.840267944E1,1.983702469E1,2.836197942E1
5.237222609E0,-7.115673542E0,3.122315025E1,6.302476883E0,3.263800142E1
5.245428725E0,1.627936482E0,4.510455322E1,-1.632163525E0,4.516342388E1
5.253635186E0,-1.446088076E0,5.257106400E1,-3.991639614E0,5.274221390E1
5.261841263E0,-1.066104698E1,5.140570068E1,-2.958153725E0,5.258283616E1
5.270048417E0,-1.215182400E1,3.732920074E1,-1.567104459E0,3.928857176E1
5.278268494E0,-1.039970398E1,1.930569458E1,-1.504278779E-1,2.192912024E1
5.286474955E0,-6.623991013E0,8.858137131E0,-5.528969169E-1,1.107472552E1
5.294682186E0,-3.896792412E0,3.557859421E0,-1.848411918E0,5.591062634E0
5.302889840E0,-1.532761097E0,9.730272293E-1,-4.312507629E0,4.679087584E0
5.311097455E0,7.415487170E-1,-9.198999405E-1,-5.271480083E0,5.402278470E0
5.319311263E0,1.404933691E0,-1.960304260E0,-4.739388466E0,5.317747126E0
5.327519378E0,-1.785957217E-1,-3.088454247E0,-2.509583950E0,3.983523273E0
5.335758071E0,-3.013775349E0,-3.755501270E0,-1.273039103E0,4.980688727E0
5.343966994E0,-5.945904732E0,-4.845457554E0,-1.485044479E0,7.812656340E0
5.352174994E0,-7.794342995E0,-5.961068630E0,-2.057462692E0,1.002593011E1
5.360395840E0,-8.813643456E0,-7.105484962E0,-2.141826630E0,1.152196376E1
5.368603532E0,-8.794153214E0,-8.125355721E0,-2.920558453E0,1.232429300E1
5.376812263E0,-7.713907242E0,-8.880828857E0,-4.095187187E0,1.245568321E1
5.385020570E0,-5.910534382E0,-9.448816299E0,-4.700224876E0,1.209572900E1
5.393229763E0,-4.210157871E0,-1.023577595E1,-4.662611008E0,1.200984929E1
5.401444109E0,-2.672084093E0,-1.100295639E1,-4.032515049E0,1.201941181E1
5.409652493E0,-1.822882414E0,-1.164910412E1,-3.592952490E0,1.232614435E1
5.417861416E0,-1.326875210E0,-1.196018791E1,-3.333172321E0,1.248666210E1
5.426070109E0,-1.331947923E0,-1.247202682E1,-2.291683674E0,1.275058244E1
5.434278916E0,-1.628686309E0,-1.288112926E1,-1.799710274E0,1.310782466E1
5.442501916E0,-1.809859037E0,-1.294631386E1,-1.965586424E0,1.321915891E1
5.450710993E0,-1.257292271E0,-1.332509041E1,-3.330957651E0,1.379253773E1
5.458921070E0,-1.932782829E-1,-1.380066490E1,-5.659919262E0,1.491745267E1
5.467129301E0,-7.138037682E-2,-1.357839966E1,-5.760864735E0,1.475010491E1
5.475337916E0,-1.042410612E0,-1.252681065E1,-6.247472763E0,1.403704103E1
5.483552147E0,-1.034247160E0,-1.279406071E1,-5.270544529E0,1.387574489E1
5.491762147E0,1.092518568E-1,-1.261297798E1,-3.585682392E0,1.311320967E1
5.499972108E0,2.120065212E0,-1.188318443E1,-1.736047506E0,1.219502397E1
5.508180801E0,3.263216496E0,-1.099843788E1,4.423570633E-1,1.148084916E1
5.516388993E0,3.976329088E0,-1.035337543E1,1.234070301E0,1.115914448E1
5.524611685E0,3.640925407E0,-1.001544380E1,6.044864655E-1,1.067383981E1
5.532821839E0,2.420737267E0,-9.781675339E0,-2.057752132E0,1.028472096E1
5.541031147E0,1.306970596E0,-9.462638855E0,-2.972301006E0,1.000421309E1
5.549241454E0,1.811472178E-1,-9.068312645E0,-2.328547955E0,9.364253527E0
5.557451685E0,-1.018418074E0,-8.608021736E0,-1.899954438E0,8.873840231E0
5.565666608E0,-2.314177752E0,-8.565731049E0,-2.306014299E0,9.167598868E0
5.573875031E0,-4.399627686E0,-7.711866379E0,-3.975819111E0,9.728141879E0
5.582113454E0,-7.474782944E0,-5.779603004E0,-7.322798729E0,1.195406091E1
5.590321493E0,-8.601928711E0,-3.162729740E0,-7.512684822E0,1.185058944E1
5.598530185E0,-1.355524254E1,2.574801445E0,-1.107154083E1,1.769048386E1
5.606769646E0,-2.680965233E1,2.181523895E1,-1.806095695E1,3.899820861E1
5.614978416E0,-2.185245895E1,2.906944656E1,-1.606464767E1,3.975720804E1
5.623188608E0,-1.646698952E1,3.233412170E1,-2.072340393E1,4.178656053E1
5.631397916E0,-1.927934647E1,3.310545731E1,-2.333957863E1,4.485978638E1
5.639608685E0,-2.486935043E1,3.184815598E1,-2.018050194E1,4.516682730E1
5.647834223E0,-2.252238464E1,2.735877991E1,-1.279588509E1,3.767619040E1
5.656043339E0,-1.541492844E1,2.121208763E1,-5.979784489E0,2.689480438E1
5.664252646E0,-7.177261353E0,1.507295322E1,3.323241472E-1,1.669782737E1
5.672461839E0,8.540443420E0,8.179110527E0,1.883667564E1,2.224089414E1
5.680670762E0,2.396972179E-1,7.986125946E0,1.342525387E1,1.562283917E1
5.688893569E0,-6.737041473E0,1.036934185E1,4.902661324E0,1.330214518E1
5.697103415E0,-5.483923912E0,1.089394474E1,3.155203104E0,1.259788713E1
5.705314646E0,3.949632645E0,7.854544640E0,3.788233566E1,3.888913505E1
5.713525454E0,-2.799592018E-1,3.713985443E0,5.460519028E1,5.473206437E1
5.721736569E0,-6.628815651E0,4.696794510E0,2.294805336E1,2.434366917E1
5.729953761E0,-8.596084595E0,8.363656044E0,1.128585720E1,1.646857570E1
5.738170800E0,-2.085595131E0,1.003939056E1,4.410179138E0,1.116193308E1
5.746381146E0,5.067145348E0,7.081296921E0,3.958472252E0,9.565052568E0
5.754592377E0,7.864182949E0,1.857719421E0,4.600444794E0,9.298418532E0
5.762803261E0,7.121921539E0,-1.809525490E0,2.673224926E0,7.819352941E0
5.771024992E0,5.795581818E0,-4.384004593E0,2.556848526E-1,7.271426244E0
5.779234530E0,4.895648956E0,-5.920671463E0,-3.672230244E-1,7.691331616E0
5.787444953E0,4.842081070E0,-6.951996803E0,8.374345303E-1,8.513360396E0
5.795654723E0,5.245928764E0,-7.663960457E0,2.423981905E0,9.598528364E0
5.803865107E0,6.377976418E0,-8.413407326E0,5.734761238E0,1.201463659E1
5.812081069E0,7.730586529E0,-9.014790535E0,8.029852867E0,1.433551372E1
5.820291453E0,8.087169647E0,-9.136526108E0,7.080115318E0,1.410696477E1
5.828532915E0,9.822122574E0,-9.678496361E0,7.557481766E0,1.572459584E1
5.836741876E0,1.179799557E1,-1.012347603E1,8.204421043E0,1.757811113E1
5.844950646E0,1.172720337E1,-9.989760399E0,4.060236454E0,1.593135687E1
5.853174569E0,1.016769791E1,-9.264747620E0,1.022334099E-1,1.375601980E1
5.861385492E0,8.787952423E0,-8.438313484E0,-2.298376322E0,1.239821664E1
5.869597069E0,7.885463715E0,-7.666431904E0,-3.063300848E0,1.141659004E1
5.877808069E0,6.894034386E0,-6.965369701E0,-3.079537392E0,1.027266449E1
5.886017453E0,5.343210220E0,-6.772633553E0,-2.884204626E0,9.095993460E0
5.894233030E0,3.297447920E0,-6.759847641E0,-2.446429491E0,7.909090982E0
5.902443145E0,2.391293049E0,-6.039052010E0,-2.519497633E0,6.966799835E0
5.910651761E0,1.924377203E0,-4.668750286E0,-2.111184359E0,5.473349637E0
5.918861722E0,-4.637327194E-1,-1.523011208E0,-1.002939582E0,1.881621370E0
5.927072145E0,-5.418141365E0,4.913776398E0,8.592678070E0,1.128430639E1
5.935295145E0,-9.226782799E0,1.382529354E1,1.453567219E1,2.208071621E1
5.943504453E0,-8.523849487E0,2.236581421E1,6.426085472E0,2.478265986E1
5.951713107E0,1.907381654E0,3.975170898E1,1.276022434E0,3.981789428E1
5.959922530E0,7.779335022E0,5.349074554E1,-1.753838658E0,5.408191807E1
5.968132684E0,-5.203566074E0,5.389105225E1,3.578085899E-1,5.414287247E1
5.976367184E0,-2.148562622E1,4.140976715E1,-2.832204819E0,4.673780412E1
5.984577260E0,-2.629740715E1,2.646483994E1,-5.649456978E0,3.773403954E1
5.992786183E0,-1.734358597E1,1.193038273E1,-6.114777565E0,2.192086930E1
6.000995183E0,-7.158587933E0,2.792510986E0,-3.852395058E0,8.595606231E0
6.009204760E0,-1.283033133E0,-1.020001411E0,-3.476276398E0,3.843315560E0
6.017426260E0,6.070023179E-1,-2.841742039E0,-4.963152885E0,5.751246490E0
6.025634376E0,6.975166798E-1,-3.351643562E0,-5.746186256E0,6.688699469E0
6.033842376E0,-9.181113541E-2,-3.458794594E0,-5.794300079E0,6.748748235E0
6.042050645E0,-1.003044844E0,-4.060908318E0,-3.237794876E0,5.289649420E0
6.050258645E0,-2.631056070E0,-5.350445271E0,-1.659173608E0,6.188907634E0
6.058473029E0,-4.377707481E0,-6.552868843E0,-1.400474787E0,8.004107851E0
6.066680260E0,-5.548520088E0,-7.573524475E0,-1.707363367E0,9.542506893E0
6.074919568E0,-5.933030128E0,-8.263648033E0,-2.170496941E0,1.040191243E1
6.083129529E0,-5.234989166E0,-8.939833641E0,-2.642116547E0,1.069142259E1
6.091338798E0,-4.293605328E0,-9.645349503E0,-3.041211128E0,1.098711877E1
6.099560952E0,-3.343563557E0,-1.030492973E1,-3.345782280E0,1.133866188E1
6.107770529E0,-2.317949772E0,-1.078073978E1,-3.405552626E0,1.154101513E1
6.115981106E0,-1.420426250E0,-1.093797493E1,-3.097000360E0,1.145636581E1
6.124188914E0,-8.821215630E-1,-1.126645088E1,-3.494574070E0,1.182890958E1
6.132396721E0,-4.872218370E-1,-1.172915936E1,-4.321505070E0,1.250943525E1
6.140610721E0,-5.107100010E-1,-1.207255650E1,-5.574840546E0,1.330737736E1
6.148820144E0,-4.911532402E-1,-1.214963436E1,-5.238214016E0,1.323985395E1
6.157028875E0,-3.009259701E-1,-1.279660797E1,-6.046318531E0,1.415633073E1
6.165237683E0,-1.036510825E0,-1.272624874E1,-4.266325474E0,1.346229159E1
6.173447144E0,-1.411665678E0,-1.322152901E1,-3.745747805E0,1.381420486E1
6.181669529E0,-1.790901303E0,-1.290650749E1,-5.827451706E0,1.427390824E1
6.189879260E0,-2.034024239E0,-1.232798576E1,-5.227597713E0,1.354415983E1
6.198089798E0,-1.725391269E0,-1.171827888E1,-3.707572699E0,1.241133073E1
6.206298952E0,-1.141779900E0,-1.104051781E1,-1.829324961E0,1.124913884E1
6.214507183E0,6.555959582E-1,-1.032567883E1,2.226829529E-2,1.034649434E1
6.222720875E0,1.158038139E1,-8.907489777E0,1.079148293E1,1.816327919E1
6.230929913E0,1.242777443E1,-8.672237396E0,1.172070217E1,1.915808284E1
6.239139567E0,5.295666695E0,-9.347875595E0,2.988500118E0,1.115159167E1
6.247349298E0,2.117341042E0,-9.767973900E0,-1.537414074E0,1.011237308E1
6.255557336E0,1.152901530E0,-9.774293900E0,-2.378118992E0,1.012528780E1
6.263779221E0,5.508748293E-1,-9.702631950E0,-2.598936319E0,1.005977136E1
6.271988875E0,-1.164007187E-2,-9.586667061E0,-2.386334419E0,9.879216203E0
6.280199067E0,-1.336165667E0,-9.212673187E0,-2.866992235E0,9.740550827E0
6.288409413E0,-5.840323448E0,-8.134125710E0,-6.199952126E0,1.177763921E1
6.296619221E0,-1.211041927E1,-5.555629730E0,-1.318906975E1,1.874776887E1
6.304850490E0,-1.339080334E1,-1.333377838E0,-1.638587570E1,2.120350049E1
6.313058875E0,-1.894914436E1,8.959113121E0,-1.804526520E1,2.765804361E1
6.321296913E0,-2.537094688E1,2.200486374E1,-1.399439430E1,3.638326601E1
6.329504028E0,-2.284271240E1,2.747936821E1,-1.812104416E1,4.006591355E1
6.337711298E0,-1.833491325E1,2.888528633E1,-2.121951103E1,4.025911647E1
6.345933874E0,-2.049145889E1,2.839064789E1,-2.012386322E1,4.038438617E1
6.354142374E0,-2.360453796E1,2.580405045E1,-1.432035065E1,3.779015314E1
6.362351759E0,-2.032584190E1,2.140823555E1,-6.888826370E0,3.031350074E1
6.370560644E0,-1.303644276E1,1.611270714E1,-2.956308842E0,2.093580505E1
6.378769836E0,1.820340157E-1,1.060208035E1,5.133562088E0,1.178094664E1
6.386983797E0,2.231194258E0,8.298300743E0,6.833768368E0,1.097908981E1
6.395192682E0,-4.971919060E0,9.890480995E0,1.582334042E0,1.118236891E1
6.403401951E0,-6.947948456E0,1.131463718E1,-2.563835859E0,1.352287901E1
6.411609951E0,-3.428031683E0,1.173220158E1,-3.035869598E0,1.259414385E1
6.419817451E0,6.089751720E0,1.109419346E1,1.457825756E1,1.930522722E1
6.428037682E0,9.091687202E0,1.076367664E1,7.603049469E1,7.732497419E1
6.436243951E0,-4.132323742E0,7.487469673E0,3.902688980E1,3.995292767E1
6.444450913E0,-1.032631493E1,8.560574532E0,1.667825699E1,2.140281459E1
6.452659220E0,-7.504486084E0,1.076032448E1,6.801651955E0,1.477715682E1
6.460866566E0,-1.027809143E0,1.092150974E1,1.287422895E0,1.104505430E1
6.469079374E0,6.048225403E0,6.670140266E0,-1.099684954E0,9.070893489E0
6.477286759E0,7.874252796E0,1.609232903E0,3.158998489E-2,8.037069463E0
6.485494797E0,6.780280590E0,-2.152566433E0,-3.174655437E-1,7.120851880E0
6.493702335E0,5.666140079E0,-4.485063553E0,-7.054250240E-1,7.260754984E0
6.501910566E0,5.450819016E0,-6.113115311E0,-5.023405552E-1,8.205726828E0
6.510133643E0,5.516254425E0,-7.349326611E0,1.928975582E-1,9.191238980E0
6.518341258E0,5.791216373E0,-8.198644638E0,1.091011286E0,1.009684439E1
6.526549643E0,6.135523319E0,-8.732526779E0,2.165199995E0,1.088989262E1
6.534759797E0,6.947670937E0,-9.163568497E0,6.325350761E0,1.312444975E1
6.542969143E0,1.037701035E1,-1.021655464E1,1.339687729E1,1.978728515E1
6.551183489E0,9.541871071E0,-1.014914131E1,1.125624561E1,1.790964651E1
6.559393143E0,8.889594078E0,-9.834325790E0,8.012439728E0,1.548993341E1
6.567635604E0,8.994979858E0,-9.999970436E0,4.434769154E0,1.416249444E1
6.575844797E0,8.756153107E0,-1.003788757E1,3.060089350E-1,1.332377745E1
6.584053489E0,7.790615082E0,-9.404310226E0,-2.953667641E0,1.256419065E1
6.592276220E0,7.565372467E0,-9.058093071E0,-5.067024231E0,1.284362274E1
6.600485181E0,7.183685303E0,-8.658078194E0,-6.273799896E0,1.288131273E1
6.608694027E0,6.155791283E0,-8.372248650E0,-6.063694000E0,1.203148780E1
6.616903335E0,3.900247097E0,-8.332132339E0,-4.166793823E0,1.009943204E1
6.625112220E0,3.409140110E0,-7.883978844E0,-3.842483759E0,9.409784277E0
6.633327104E0,3.163282871E0,-7.267842293E0,-3.677126646E0,8.737800094E0
6.641537181E0,2.733686447E0,-6.066618443E0,-3.150687218E0,7.362318308E0
6.649746681E0,3.114151955E-2,-7.437782288E-1,1.098475456E1,1.100995044E1
6.657956758E0,-6.711559296E0,1.070833111E1,1.853592300E1,2.243421104E1
6.666165489E0,-7.118683338E0,1.761022949E1,1.121623516E1,2.205900647E1
6.674390181E0,-1.659357190E0,3.424938965E1,2.341708660E0,3.436943056E1
6.682601142E0,-1.430858850E0,5.069058228E1,-2.591795683E0,5.077696223E1
6.690812873E0,-9.168955803E0,5.604513550E1,-2.963685036E0,5.686748098E1
6.699024681E0,-1.790827751E1,4.907308197E1,-2.743367672E0,5.231060928E1
6.707234681E0,-2.095049667E1,3.311788177E1,-1.631722689E0,3.922218662E1
6.715450719E0,-1.523144054E1,1.652984428E1,-1.802124262E0,2.254950520E1
6.723660450E0,-5.692887783E0,5.854928970E0,-2.859330893E0,8.652452699E0
6.731871527E0,1.006347060E0,4.206743240E-1,-3.569058657E0,3.732007635E0
6.740081950E0,3.481389284E0,-2.039766788E0,-3.986825705E0,5.672345114E0
6.748291450E0,2.948294640E0,-2.594045639E0,-4.368796349E0,5.874342141E0
6.756515411E0,1.577330589E0,-2.824704170E0,-5.559843540E0,6.432634424E0
6.764725604E0,-2.284381688E-1,-3.589148045E0,-5.126398087E0,6.262118254E0
6.772935488E0,-2.079950571E0,-4.276656628E0,-4.807274818E0,6.762091205E0
6.781144411E0,-4.233105659E0,-5.193459988E0,-4.482252598E0,8.061128861E0
6.789352565E0,-5.961732864E0,-5.953982353E0,-3.972443104E0,9.315174117E0
6.797566565E0,-6.808635235E0,-6.760567188E0,-3.565265179E0,1.023591219E1
6.805775796E0,-6.560662270E0,-7.670294285E0,-3.384685040E0,1.064574077E1
6.814015103E0,-5.652682304E0,-8.437891960E0,-3.288917065E0,1.067557087E1
6.822224565E0,-4.487953186E0,-9.036711693E0,-3.450219870E0,1.066339060E1
6.830433988E0,-3.351863384E0,-9.466090202E0,-3.526901007E0,1.064334922E1
6.838658680E0,-2.743336916E0,-1.004043102E1,-3.730450153E0,1.105678122E1
6.846869488E0,-1.916498184E0,-1.046802139E1,-3.740421772E0,1.128021242E1
6.855078796E0,-1.244295359E0,-1.069979382E1,-3.508673191E0,1.132892961E1
6.863288526E0,-6.124766469E-1,-1.087156487E1,-3.316507578E0,1.138267424E1
6.871498526E0,-4.451727271E-1,-1.115135956E1,-4.051177025E0,1.187278544E1
6.879712257E0,-3.944253922E-1,-1.144900513E1,-4.475554943E0,1.229901955E1
6.887922603E0,-6.333771944E-1,-1.166415977E1,-4.345263481E0,1.246335046E1
6.896132180E0,-7.641057968E-1,-1.173352051E1,-3.980170488E0,1.241374715E1
6.904341757E0,-1.094766974E0,-1.180270386E1,-3.707463980E0,1.241964662E1
6.912550372E0,-1.437015414E0,-1.180107212E1,-3.780151129E0,1.247476890E1
6.920771680E0,-2.092762947E0,-1.176596069E1,-4.278972626E0,1.269358478E1
6.928981372E0,-1.923832297E0,-1.176110744E1,-3.833197117E0,1.251871316E1
6.937191064E0,-1.302008748E0,-1.141440392E1,-1.840994358E0,1.163499479E1
6.945402334E0,7.697209835E0,-1.041663170E1,7.354379654E0,1.489429942E1
6.953613372E0,8.575021744E0,-9.541647911E0,7.307794094E0,1.476407455E1
6.961830526E0,5.528241634E0,-9.584888458E0,3.908800125E0,1.173500152E1
6.970041334E0,2.542343616E0,-9.970856667E0,-7.041940689E-1,1.031394120E1
6.978251680E0,1.865570903E0,-1.015095139E1,-2.427597284E0,1.060261276E1
6.986461103E0,1.588585615E0,-1.024453068E1,-2.889478922E0,1.076211417E1
6.994670680E0,8.105127811E-1,-1.022672081E1,-3.056163788E0,1.070433961E1
7.002891987E0,-2.239794731E-1,-1.021271896E1,-3.582454681E0,1.082514559E1
7.011100487E0,-1.505390406E0,-9.747233391E0,-4.264700890E0,1.074534470E1
7.019309333E0,-2.986447573E0,-8.790424347E0,-5.054431438E0,1.057060578E1
7.027518141E0,-3.344008923E0,-7.447260857E0,-6.254090309E0,1.028385801E1
7.035725641E0,-3.968489885E0,-5.242223263E0,-7.903896332E0,1.028111832E1
7.043958295E0,-1.370358849E1,8.160790443E0,-1.902128220E1,2.482329580E1
7.052167333E0,-1.770980644E1,1.877065468E1,-2.286577034E1,3.447924266E1
7.060406295E0,-2.007885933E1,2.639904022E1,-1.948415565E1,3.846689795E1
7.068613949E0,-1.780172157E1,2.951184082E1,-1.645437622E1,3.819157677E1
7.076822602E0,-1.852453423E1,3.024553680E1,-1.638646507E1,3.907002819E1
7.085045102E0,-2.192185402E1,2.782270432E1,-1.422194195E1,3.816980733E1
7.093254795E0,-1.944003868E1,2.347521210E1,-8.043503761E0,3.152298589E1
7.101465179E0,-5.110513687E0,1.824275970E1,7.237810612E0,2.028057036E1
7.109674679E0,1.205144048E0,1.203834057E1,1.085669327E1,1.625551613E1
7.117883948E0,-5.896314621E0,1.085026360E1,-1.188097477E0,1.240589867E1
7.126099833E0,-6.669311523E0,1.080520916E1,-6.227256775E0,1.414252411E1
7.134308679E0,-4.670964241E0,1.086888504E1,-7.333846092E0,1.391890324E1
7.142517333E0,-1.834379911E0,1.064166546E1,-6.571559906E0,1.264102025E1
7.150726218E0,3.037939310E0,1.005397320E1,2.766332388E0,1.086112550E1
7.158936794E0,1.362163258E1,9.462110519E0,4.307706451E1,4.615965659E1
7.167161064E0,8.905315399E-2,8.804897308E0,7.191861725E1,7.245565302E1
7.175370487E0,-6.629558563E0,7.885042191E0,2.254572487E1,2.478779230E1
7.183581448E0,-1.074984169E1,1.101099396E1,5.881763935E0,1.647410791E1
7.191791833E0,-5.213343143E0,1.198444653E1,1.176404238E0,1.312211234E1
7.200002525E0,4.781127930E0,8.536000252E0,1.565945864E0,9.908313228E0
7.208218294E0,9.536423683E0,3.466526031E0,6.917769432E0,1.228070492E1
7.216427717E0,9.404510498E0,-7.391457558E-1,6.967094898E0,1.172738528E1
7.224637525E0,7.693850517E0,-3.322034836E0,3.895516396E0,9.241552858E0
7.232847948E0,6.531825066E0,-5.147612572E0,2.237231970E0,8.612076449E0
7.241057679E0,5.695544720E0,-6.194828033E0,1.885540724E0,8.623826751E0
7.249281486E0,5.454846382E0,-7.005774975E0,2.307829618E0,9.174001831E0
7.257492717E0,6.006134033E0,-7.862557411E0,3.594859362E0,1.052694015E1
7.265704756E0,7.268873215E0,-8.816165924E0,6.255612850E0,1.302666464E1
7.273916025E0,9.025634766E0,-9.712562561E0,9.229601860E0,1.615492200E1
7.282126332E0,9.681845665E0,-9.942967415E0,8.112771988E0,1.607537887E1
7.290342563E0,1.016544819E1,-1.037104225E1,4.532750130E0,1.521317449E1
7.298553102E0,9.118019104E0,-9.763745308E0,6.873135567E-1,1.337689780E1
7.306794063E0,8.255993843E0,-9.203688622E0,-1.266790390E0,1.242876005E1
7.315004948E0,7.754002571E0,-8.952764511E0,-1.428379178E0,1.192966116E1
7.323216255E0,7.595766544E0,-8.874238968E0,-1.114747047E0,1.173415730E1
7.331441255E0,6.857763290E0,-8.767301559E0,-6.089087725E-1,1.114743306E1
7.339653563E0,6.027723312E0,-8.526987076E0,-6.584317684E-1,1.046310132E1
7.347864678E0,4.484797001E0,-8.053471565E0,-1.053890586E0,9.278065195E0
7.356075563E0,3.084718704E0,-7.573805809E0,-1.769898415E0,8.367231580E0
7.364286063E0,2.771563292E0,-6.889021873E0,-2.174839973E0,7.737578068E0
7.372503217E0,1.714165449E0,-5.097447395E0,-1.318787694E0,5.537285808E0
7.380714217E0,-1.281801701E0,-9.431905746E-1,2.728867531E0,3.159009665E0
7.388925563E0,-6.140399933E0,6.554138184E0,1.278795242E1,1.562667482E1
7.397137986E0,-8.541643143E0,1.440979004E1,1.302462673E1,2.121892123E1
7.405348947E0,-3.802642822E0,2.625612640E1,2.849985361E0,2.668270381E1
7.413574409E0,6.586400986E0,4.634420013E1,-7.561758995E0,4.741672451E1
7.421787870E0,2.686585903E0,5.566824341E1,-6.845213413E0,5.615183002E1
7.430000255E0,-1.157761383E1,5.235540390E1,-4.894177914E-1,5.362246721E1
7.438212447E0,-2.110289764E1,3.884944153E1,2.941548824E-1,4.421196584E1
7.446424909E0,-1.754509163E1,1.961949539E1,-1.442910433E0,2.635975778E1
7.454643178E0,-9.964170456E0,6.883683205E0,-1.898338318E0,1.225860823E1
7.462855409E0,-3.593070507E0,5.834102631E-2,-1.903615952E0,4.066609526E0
7.471066062E0,-1.361020803E-1,-2.621603966E0,-3.138105631E0,4.091336955E0
7.479277562E0,1.144658089E0,-3.008979321E0,-5.360395432E0,6.252842384E0
7.487489293E0,1.122685671E0,-3.153539658E0,-4.979443073E0,6.000007401E0
7.495714101E0,-2.075523138E-2,-3.363088608E0,-3.371175051E0,4.761892164E0
7.503926678E0,-2.118744135E0,-4.186179638E0,-2.516247034E0,5.323971807E0
7.512138793E0,-3.766597509E0,-5.556995869E0,-1.950979233E0,6.990978461E0
7.520351293E0,-5.386807442E0,-6.620533943E0,-1.675379992E0,8.698049334E0
7.528563447E0,-6.311046124E0,-7.470335960E0,-2.319703817E0,1.005068397E1
7.536782216E0,-6.261384487E0,-8.094290733E0,-3.214992523E0,1.072653975E1
7.544994331E0,-5.707807541E0,-8.580090523E0,-3.812641621E0,1.098786860E1
7.553235101E0,-4.578446388E0,-9.176939964E0,-4.016037941E0,1.101394385E1
7.561444947E0,-3.501060724E0,-9.785781860E0,-3.761284590E0,1.105288264E1
7.569656216E0,-2.425623655E0,-1.043647671E1,-3.009961605E0,1.112940093E1
7.577879485E0,-1.732390761E0,-1.088871193E1,-2.685238123E0,1.134793942E1
7.586089062E0,-1.216198683E0,-1.104594135E1,-2.993271112E0,1.150876325E1
7.594299985E0,-9.221946597E-1,-1.122764492E1,-3.508670330E0,1.179920425E1
7.602510639E0,-5.057110190E-1,-1.113646889E1,-3.809852600E0,1.178098721E1
7.610721254E0,-4.362559319E-1,-1.128173447E1,-3.817822933E0,1.191820556E1
7.618936485E0,-4.100826979E-1,-1.155335236E1,-3.946634531E0,1.221572931E1
7.627146100E0,-3.187053204E-1,-1.193097305E1,-4.379989147E0,1.271353594E1
7.635355062E0,8.782303333E-2,-1.199790096E1,-3.927132130E0,1.262456760E1
7.643563216E0,1.989784241E-1,-1.173967648E1,-3.602852821E0,1.228169958E1
7.651772408E0,2.130069733E-1,-1.139486313E1,-3.181908846E0,1.183270137E1
7.659992408E0,4.632498026E-1,-1.093082619E1,-2.593028069E0,1.124372519E1
7.668199600E0,8.113154769E-1,-1.046365547E1,-1.757230043E0,1.064115483E1
7.676406216E0,4.144623756E0,-9.758975983E0,2.768030167E0,1.095798838E1
7.684613908E0,4.449202538E0,-9.665946007E0,3.279463291E0,1.113466636E1
7.692822754E0,2.458451271E0,-1.009365749E1,-1.187330008E0,1.045636920E1
7.701038408E0,1.499467254E0,-1.004027939E1,-2.670061588E0,1.049689674E1
7.709247369E0,1.282727957E0,-1.003952503E1,-3.262271166E0,1.063390178E1
7.717457215E0,8.966441154E-1,-1.008617687E1,-3.457968950E0,1.070011607E1
7.725667715E0,-1.163854599E-1,-8.912438393E0,-4.206329823E0,9.855877143E0
7.733877485E0,-1.185064077E0,-8.159819603E0,-4.749173164E0,9.515339120E0
7.742100254E0,-4.060055733E0,-6.359095573E0,-6.688293457E0,1.008243118E1
7.750310292E0,-7.604586601E0,-3.921248913E0,-9.685115814E0,1.292313425E1
7.758520446E0,-6.580978394E0,-2.825310230E0,-7.889647484E0,1.065543016E1
7.766730061E0,-8.610110283E0,5.406108856E0,-6.753691673E0,1.220542352E1
7.774938869E0,-2.174559975E1,2.251913261E1,-1.534317017E1,3.486252017E1
7.783171100E0,-1.263040638E1,2.954208183E1,-7.516744614E0,3.299641214E1
7.791381715E0,-8.099447250E0,3.237210464E1,-1.198841667E1,3.545809272E1
7.799623138E0,-1.642225266E1,3.246478271E1,-1.885575867E1,4.097794692E1
7.807833215E0,-2.405987740E1,3.149557495E1,-1.880027580E1,4.386683613E1
7.816043407E0,-2.130581284E1,2.683922958E1,-1.251502228E1,3.648160753E1
7.824267753E0,-1.400272942E1,2.003329468E1,-5.925872803E0,2.515005557E1
7.832477753E0,-5.482761860E0,1.391133976E1,1.184282899E0,1.499961925E1
7.840687676E0,6.886734009E0,7.129974365E0,1.736350250E1,1.999387053E1
7.848898023E0,2.614052773E0,5.797976494E0,1.303997135E1,1.450829612E1
7.857107830E0,-3.288499355E0,7.486370087E0,4.671007156E0,9.416914194E0
7.865321830E0,-3.234757185E0,8.522912979E0,2.662873745E0,9.497083567E0
7.873531946E0,4.545371532E-1,7.603279114E0,7.554366112E0,1.072776326E1
7.881742638E0,-2.890344381E0,2.340430260E0,6.582389832E1,6.592888058E1
7.889953407E0,-6.745412350E0,2.106008530E0,4.145594788E1,4.205391152E1
7.898163292E0,-1.141950893E1,5.153269768E0,1.834316063E1,2.221334994E1
7.906387907E0,-8.796721458E0,8.932600021E0,8.790834427E0,1.531183926E1
7.914599099E0,-1.281443596E0,8.089906693E0,5.286104679E0,9.748414777E0
7.922809176E0,4.668288231E0,4.774129868E0,3.897066116E0,7.731258327E0
7.931019022E0,6.418767929E0,9.250097275E-1,2.206687450E0,6.850233151E0
7.939229753E0,6.056202888E0,-1.780377388E0,-1.422816277E0,6.470837908E0
7.947444561E0,4.730586052E0,-4.081228256E0,-2.353544235E0,6.676379179E0
7.955653753E0,4.251446724E0,-5.729278564E0,-9.760918617E-1,7.200846300E0
7.963863484E0,4.425501347E0,-6.941446304E0,3.560230732E-1,8.239872050E0
7.972072599E0,5.052114487E0,-8.081642151E0,1.935829043E0,9.725442649E0
7.980282599E0,6.992012024E0,-8.860333443E0,7.052430153E0,1.330903873E1
7.988508099E0,7.783973694E0,-9.352914810E0,1.122215462E1,1.655306667E1
7.996720522E0,6.931058884E0,-9.269756317E0,7.290136337E0,1.367896368E1
8.004931137E0,7.260417938E0,-9.329075813E0,4.981717110E0,1.282820445E1
8.013142176E0,8.702919960E0,-9.709730148E0,7.098904610E0,1.484635046E1
8.021352868E0,1.076526833E1,-1.017053604E1,8.696660042E0,1.717447820E1
8.029569560E0,9.303546906E0,-9.665557861E0,6.032055616E-1,1.342917908E1
8.037780368E0,7.263800621E0,-8.540097237E0,-4.908930779E0,1.223902209E1
8.046019829E0,6.046948910E0,-7.505470276E0,-6.890289783E0,1.184794364E1
8.054229868E0,5.320403099E0,-7.196168900E0,-7.245415688E0,1.151466823E1
8.062439329E0,4.304153442E0,-6.738650322E0,-7.132143974E0,1.071459858E1
8.070664329E0,3.576764107E0,-5.974411964E0,-7.148853779E0,9.979626754E0
8.078874329E0,2.541588306E0,-4.690412045E0,-6.804695606E0,8.646589996E0
8.087084329E0,5.755126476E-1,-1.469267845E0,-4.375660896E0,4.651491276E0
8.095294714E0,-6.790464401E0,9.678168297E0,3.268135071E1,3.475410814E1
8.103505598E0,-9.914548874E0,1.648816681E1,1.957481003E1,2.744687800E1
8.111720945E0,-8.152551651E0,2.523883057E1,4.397223473E0,2.688490731E1
8.119930714E0,3.554740667E0,4.179006195E1,-2.097743273E0,4.199340408E1
8.128140829E0,3.503478050E0,5.082125473E1,-4.908700943E0,5.117782367E1
8.136350829E0,-8.018252373E0,4.697542191E1,-1.796869993E0,4.768869233E1
8.144560791E0,-1.837393951E1,3.460558701E1,-2.503180504E0,3.926084841E1
8.152802637E0,-1.465732479E1,1.702978134E1,-3.713598728E0,2.277370058E1
8.161013444E0,-6.455368042E0,5.837594986E0,-3.790000200E0,9.492807451E0
8.169223752E0,-1.526109815E0,2.071895599E-1,-2.733800888E0,3.137770861E0
8.177435598E0,-8.988663554E-2,-2.156382561E0,-3.656317234E0,4.245788628E0
8.185646944E0,-5.967444181E-2,-2.892245293E0,-4.542233944E0,5.385214302E0
8.193863829E0,-9.289326668E-1,-2.809715271E0,-4.019658566E0,4.991499853E0
8.202073598E0,-1.995268703E0,-3.116438866E0,-2.975968361E0,4.748649922E0
8.210284175E0,-2.966393471E0,-4.353674412E0,-2.556844234E0,5.855887938E0
8.218494560E0,-4.491105080E0,-5.630765915E0,-2.296245575E0,7.559649024E0
8.226703290E0,-5.874712944E0,-6.700617313E0,-2.373303413E0,9.221881242E0
8.234925829E0,-6.228105545E0,-7.615438938E0,-2.925330400E0,1.026361373E1
8.243135829E0,-5.457725525E0,-8.270552635E0,-3.559302807E0,1.052888623E1
8.251345752E0,-4.622970581E0,-8.893214226E0,-3.967074871E0,1.077955469E1
8.259557021E0,-3.697687626E0,-9.349165916E0,-3.889037132E0,1.077981479E1
8.267768136E0,-2.864274979E0,-9.678670883E0,-3.542830944E0,1.069730771E1
8.275985136E0,-2.032421112E0,-1.012658978E1,-3.159059048E0,1.080084303E1
8.284194482E0,-1.301721811E0,-1.045232105E1,-2.993223906E0,1.095010888E1
8.292435559E0,-1.026667356E0,-1.065517330E1,-3.487082243E0,1.125817510E1
8.300645444E0,-1.200763941E0,-1.076813507E1,-4.193082333E0,1.161793899E1
8.308854328E0,-1.414256573E0,-1.092191219E1,-4.446867943E0,1.187699129E1
8.317080367E0,-1.586240292E0,-1.101067448E1,-4.731295586E0,1.208868349E1
8.325291713E0,-1.927372098E0,-1.111458206E1,-4.966984749E0,1.232556835E1
8.333502290E0,-1.745576859E0,-1.131478214E1,-4.698643208E0,1.237532147E1
8.341711636E0,-1.913159370E0,-1.167742252E1,-4.919479370E0,1.281497768E1
8.349921444E0,-2.166461468E0,-1.209856319E1,-5.909619331E0,1.363790260E1
8.358137713E0,-2.640846252E0,-1.143174934E1,-4.836805820E0,1.269069157E1
8.366346828E0,-1.917171597E0,-1.074206924E1,-3.314562321E0,1.140411864E1
8.374556867E0,-2.702545822E-1,-1.013974285E1,-1.629570961E0,1.027340859E1
8.382767597E0,1.418743229E1,-8.685759544E0,1.379464722E1,2.161059799E1
8.390977213E0,1.047986603E1,-9.346780777E0,8.820266724E0,1.658273222E1
8.399199674E0,1.262897491E0,-1.063594437E1,-1.590605021E0,1.082812297E1
8.407409597E0,-1.687260032E0,-1.054518890E1,-4.195597172E0,1.147392222E1
8.415619867E0,-2.443726063E0,-1.008878613E1,-4.467065334E0,1.130088825E1
8.423830405E0,-4.028167725E0,-9.501584053E0,-4.897760391E0,1.142340981E1
8.432041559E0,-6.106638432E0,-8.879752159E0,-6.458977699E0,1.256421204E1
8.440256520E0,-8.804313660E0,-7.632039547E0,-8.266450882E0,1.428629332E1
8.448466059E0,-1.158258724E1,-5.520392418E0,-9.496415138E0,1.596286190E1
8.456675289E0,-1.440475941E1,-2.470345020E0,-9.746993065E0,1.756711621E1
8.464884328E0,-1.544399929E1,1.948566437E0,-6.760605812E0,1.697114658E1
8.473093943E0,-1.557632923E1,7.443986893E0,-5.090272903E0,1.799849581E1
8.481317328E0,-1.769742775E1,1.856926727E1,-5.226340294E0,2.617883246E1
8.489527443E0,-1.368484592E1,2.821293640E1,-1.311531258E1,3.398906019E1
8.497737020E0,-1.272832966E1,2.740526962E1,-1.891471672E1,3.564864216E1
8.505946674E0,-2.080040550E1,2.550172043E1,-2.101886559E1,3.904852525E1
8.514155674E0,-2.215018082E1,2.290171814E1,-1.554900932E1,3.545265709E1
8.522371251E0,-1.712863350E1,1.980829239E1,-1.195755005E1,2.878787134E1
8.530581751E0,-1.128770638E1,1.757762337E1,-9.384451866E0,2.290094093E1
8.538823674E0,-8.055692673E0,1.573816299E1,-6.335659504E0,1.878096218E1
8.547036635E0,-5.352465630E0,1.522682190E1,-3.375315189E0,1.648932218E1
8.555248866E0,1.670003057E0,1.552549076E1,9.138841629E0,1.809276651E1
8.563474789E0,9.093793869E0,1.411027813E1,2.568481636E1,3.068398324E1
8.571687597E0,3.825587034E0,1.497705650E1,2.195545197E1,2.685124222E1
8.579898751E0,4.750681400E0,1.367430210E1,2.815393066E1,3.165753186E1
8.588110712E0,-2.430840492E0,4.476018906E0,6.898916626E1,6.917693830E1
8.596321635E0,-1.487696075E1,7.184240341E0,1.766676521E1,2.418784537E1
8.604538866E0,-2.040839195E1,1.012713528E1,1.023356438E1,2.497573164E1
8.612749789E0,-7.992696762E0,1.007542706E1,3.625508070E0,1.336195123E1
8.620961520E0,5.055835724E0,6.553369522E0,-2.774024010E-2,8.277010117E0
8.629172866E0,9.511400223E0,2.739849091E0,-1.987872839E0,1.009579842E1
8.637384904E0,8.568202972E0,-5.256013870E-1,-1.936629057E0,8.800050630E0
8.645611366E0,7.030760765E0,-3.119923592E0,-7.774748802E-1,7.731105182E0
8.653823327E0,5.948443413E0,-5.371872902E0,1.390666485E0,8.134798755E0
8.662034904E0,6.161991119E0,-7.150134563E0,2.353913546E0,9.728076265E0
8.670246712E0,6.682640076E0,-8.185724258E0,3.914835453E0,1.126897052E1
8.678458019E0,6.551756382E0,-8.802526474E0,5.295972824E0,1.218430598E1
8.686674019E0,7.899891853E0,-9.516003609E0,6.817773819E0,1.412248759E1
8.694886558E0,6.978563309E0,-9.424879074E0,4.808636665E0,1.267484430E1
8.703096942E0,7.034816265E0,-9.531280518E0,5.062802792E0,1.288277611E1
8.711308173E0,8.063848495E0,-9.866801262E0,7.352178574E0,1.471169431E1
8.719517904E0,8.757850647E0,-1.027739334E1,5.792960167E0,1.469296258E1
8.727743327E0,8.926549911E0,-1.017956638E1,8.358604312E-1,1.356486372E1
8.735954288E0,9.501016617E0,-9.852652550E0,-2.768091679E0,1.396446958E1
8.744165750E0,9.477855682E0,-9.321233749E0,-4.649787426E0,1.408316974E1
8.752376634E0,8.434276581E0,-9.123154640E0,-5.115839481E0,1.343654664E1
8.760587365E0,6.418588638E0,-9.130407333E0,-4.101235867E0,1.189044801E1
8.768803634E0,4.237980366E0,-9.363196373E0,-2.912543297E0,1.068236080E1
8.777014519E0,3.121454000E0,-9.002192497E0,-3.063519955E0,1.000840144E1
8.785255596E0,2.627027035E0,-8.237612724E0,-3.207963228E0,9.222286187E0
8.793466942E0,2.222374916E0,-7.213391304E0,-3.670722723E0,8.393221651E0
8.801677711E0,1.617282629E0,-5.590460777E0,-2.480454922E0,6.326255719E0
8.809901057E0,-7.355511189E-1,3.616638184E-1,5.231968164E-1,9.724047895E-1
8.818110827E0,-9.101839066E0,1.233487797E1,2.607298279E1,3.024554712E1
8.826320980E0,-1.065485573E1,1.841094971E1,1.315376091E1,2.501020683E1
8.834531519E0,-2.702408314E0,3.343826675E1,-2.070998430E0,3.361115483E1
8.842742326E0,1.293697929E1,5.033121109E1,-1.411973190E1,5.385130520E1
8.850978403E0,1.338243103E1,5.620212936E1,-4.320771217E0,5.793477254E1
8.859188365E0,-1.374350429E0,4.837838745E1,5.269584656E0,4.868393712E1
8.867398519E0,-9.158077240E0,3.441666031E1,3.913809299E0,3.582868667E1
8.875609672E0,-1.157029057E1,1.832064438E1,1.600419879E0,2.172737854E1
8.883820442E0,-9.397294998E0,7.391419411E0,1.755340219E0,1.208401645E1
8.892045519E0,-5.179973602E0,1.485560417E0,-1.340415120E0,5.552992794E0
8.900256826E0,-7.848092318E-1,-1.726774693E0,-5.040629387E0,5.385686677E0
8.908467903E0,1.068523526E0,-3.409015656E0,-5.381375313E0,6.459282508E0
8.916679518E0,1.807093620E-1,-4.274878025E0,-3.130800962E0,5.301806548E0
8.924889134E0,-2.891868353E0,-4.889554024E0,-1.141008973E0,5.794181789E0
8.933086057E0,-5.639845848E0,-5.432989120E0,-9.180693626E-1,7.884673952E0
8.941297403E0,-7.621577263E0,-5.859033585E0,-1.300900221E0,9.700982213E0
8.949509172E0,-8.065942764E0,-6.891657829E0,-2.423578739E0,1.088246820E1
8.957720364E0,-6.948194981E0,-7.729123592E0,-3.919112444E0,1.110748429E1
8.965930903E0,-5.809960365E0,-8.598731995E0,-3.443463326E0,1.093395039E1
8.974155480E0,-4.518582821E0,-9.289810181E0,-2.820019484E0,1.070843937E1
8.982367326E0,-3.541830778E0,-1.000697517E1,-2.763480425E0,1.096909027E1
8.990577787E0,-2.911945105E0,-1.056472492E1,-2.288193941E0,1.119502874E1
8.998787134E0,-2.251583338E0,-1.097565460E1,-1.955718994E0,1.137362995E1
9.006995826E0,-1.898219466E0,-1.117575741E1,-2.190923691E0,1.154560251E1
9.015210518E0,-1.760649323E0,-1.133983994E1,-2.441104412E0,1.173246975E1
9.023420210E0,-1.460384369E0,-1.134234810E1,-2.315966368E0,1.166813109E1
9.031659441E0,-1.395382643E0,-1.142008114E1,-2.442107439E0,1.176134493E1
9.039869018E0,-1.374416709E0,-1.155904293E1,-2.664163113E0,1.194145133E1
9.048078056E0,-1.428407550E0,-1.181924725E1,-3.047732353E0,1.228916702E1
9.056300364E0,-1.337699652E0,-1.192036343E1,-2.721575975E0,1.230006018E1
9.064510403E0,-1.262261868E0,-1.169465923E1,-2.652228355E0,1.205788849E1
9.072720672E0,-1.306754231E0,-1.138753605E1,-2.468085289E0,1.172497458E1
9.080932287E0,-9.549337626E-1,-1.094081879E1,-1.978798866E0,1.115925890E1
9.089142749E0,-6.190308928E-1,-1.055504036E1,-1.450313330E0,1.067218277E1
9.097360402E0,-4.897601008E-1,-1.038766003E1,-1.197190285E0,1.046788471E1
9.105571710E0,1.728217363E0,-9.913861275E0,3.123105049E0,1.053684800E1
9.113782633E0,1.916396022E-1,-1.022165871E1,4.952244759E-1,1.023544233E1
9.121994518E0,-1.281217575E0,-1.001273727E1,-1.378120661E0,1.018801466E1
9.130205902E0,-2.160284519E0,-9.681677818E0,-1.634869218E0,1.005358205E1
9.138431210E0,-2.824603081E0,-9.275689125E0,-1.454593420E0,9.804725051E0
9.146643133E0,-3.578295708E0,-8.688728333E0,-1.834855199E0,9.574178493E0
9.154855018E0,-4.156236172E0,-7.845789433E0,-2.768169880E0,9.300186849E0
9.163066094E0,-5.604967117E0,-6.666761398E0,-4.012032509E0,9.589461339E0
9.171276902E0,-8.055837631E0,-5.608267784E0,-5.906743526E0,1.145595071E1
9.179491479E0,-8.900423050E0,-4.078632355E0,-4.727745056E0,1.087218219E1
9.187701287E0,-1.519115257E1,5.439873695E0,-3.502913952E0,1.651162465E1
9.195910517E0,-2.054752159E1,1.512469578E1,-2.377613068E0,2.562440457E1
9.204119671E0,-1.693231392E1,2.397762108E1,-2.502759218E0,2.946003006E1
9.212329056E0,-1.219003677E1,2.641354752E1,-1.432279587E1,3.242552961E1
9.220550594E0,-1.382975483E1,2.736596107E1,-2.291850853E1,3.828075205E1
9.228759748E0,-1.764352226E1,2.537297821E1,-2.477537155E1,3.960935416E1
9.236970133E0,-1.798280716E1,2.288488770E1,-2.148010254E1,3.617311492E1
9.245180363E0,-1.430844498E1,1.946389580E1,-1.661071587E1,2.931707214E1
9.253389171E0,-8.972979546E0,1.646046638E1,-1.114422035E1,2.180951542E1
9.261604056E0,-7.100130081E0,1.483608532E1,-7.171582222E0,1.794304507E1
9.269813171E0,-4.969149590E0,1.510703182E1,6.041264534E-2,1.590341183E1
9.278051017E0,1.378104401E1,1.292056561E1,4.172443390E1,4.580160012E1
9.286259056E0,1.704913020E0,1.502242756E1,3.033400917E1,3.389295163E1
9.294466209E0,-2.446078062E0,1.598959064E1,2.336042595E1,2.841407763E1
9.302689017E0,-1.733906031E0,9.394760132E0,6.099149323E1,6.173516173E1
9.310896325E0,-8.692653656E0,5.066632271E0,3.304958725E1,3.454718813E1
9.319104748E0,-1.636702538E1,1.093927097E1,9.405731201E0,2.181776681E1
9.327313978E0,-1.334994030E1,1.059740734E1,1.004596901E1,1.978503075E1
9.335521825E0,-2.331097126E0,6.513338089E0,1.181978989E1,1.369543792E1
9.343736248E0,5.223017216E0,2.525414467E0,4.279078960E0,7.208893384E0
9.351945171E0,7.149903297E0,-1.578207016E-1,-4.311114788E0,8.350552991E0
9.360153940E0,5.985168457E0,-3.236385345E0,-5.061861515E0,8.480499606E0
9.368362478E0,5.074882507E0,-5.594237328E0,-2.984928846E0,8.121559207E0
9.376569978E0,4.732167244E0,-7.342936039E0,-1.041225672E0,8.797514842E0
9.384789747E0,4.746435165E0,-8.676443100E0,3.100054264E-1,9.894716520E0
9.392998094E0,5.194017410E0,-9.556959152E0,1.979993582E0,1.105593323E1
9.401206594E0,6.424564362E0,-1.032328796E1,6.795173645E0,1.392909496E1
9.409413517E0,7.235575676E0,-1.087800503E1,1.107201385E1,1.712524568E1
9.417620901E0,8.582001686E0,-1.163648701E1,9.580642700E0,1.734495020E1
9.425833401E0,7.797797203E0,-1.159073067E1,7.298973083E0,1.576152552E1
9.434041286E0,8.290040970E0,-1.185481262E1,5.222438335E0,1.537970168E1
9.442248978E0,8.359327316E0,-1.195073986E1,8.583545685E-1,1.460942535E1
9.450455516E0,7.017979145E0,-1.152937889E1,-2.728381634E0,1.377035494E1
9.458662939E0,5.969875336E0,-1.075077629E1,-4.220693111E0,1.300126350E1
9.466884632E0,5.444469452E0,-1.011908913E1,-5.106995583E0,1.257456227E1
9.475092862E0,4.381875992E0,-9.272450447E0,-6.026598930E0,1.189533813E1
9.483299709E0,3.906493187E0,-8.591333389E0,-6.218112946E0,1.130206295E1
9.491506632E0,3.842968941E0,-8.022480965E0,-5.994041920E0,1.072646958E1
9.499714939E0,3.395001411E0,-6.585660934E0,-4.998864174E0,8.937874890E0
9.507928593E0,2.327895164E-2,-2.781829834E-1,-7.688673139E-1,8.179759337E-1
9.516136401E0,-1.015034294E1,1.355054569E1,3.143452454E1,3.570400654E1
9.524374824E0,-1.284238148E1,2.322199821E1,1.810303879E1,3.212332449E1
9.532582247E0,-5.675137520E0,3.920611572E1,2.891595364E-1,3.961578359E1
9.540790016E0,5.337127209E0,5.326477814E1,-7.871867180E0,5.410718815E1
9.549014747E0,-4.335469306E-1,5.555562210E1,-4.572090626E0,5.574512645E1
9.557224708E0,-1.332861614E1,4.745578003E1,-1.403920412E0,4.931200725E1
9.565433978E0,-1.646932411E1,2.811764145E1,-6.734071970E-1,3.259285005E1
9.573641939E0,-1.177746487E1,1.254668236E1,-2.459380150E0,1.738322374E1
9.581849901E0,-5.633071899E0,3.510590553E0,-3.336291313E0,7.428767380E0
9.590064285E0,-1.650566459E0,-7.027473450E-1,-2.338538170E0,2.947369037E0
9.598272593E0,-1.566848755E-1,-1.700580120E0,-4.147489548E0,4.485330806E0
9.606481862E0,9.392213821E-2,-1.761759758E0,-6.811962128E0,7.036721313E0
9.614691324E0,-1.582739353E-1,-1.920857430E0,-5.256611824E0,5.598813425E0
9.622898708E0,-2.019080162E0,-2.563741684E0,-2.232207298E0,3.953758408E0
9.631118554E0,-3.637893677E0,-3.919017792E0,-1.702491283E0,5.611724105E0
9.639324708E0,-5.790443420E0,-5.219232559E0,-1.849847555E0,8.011963523E0
9.647531208E0,-6.983460426E0,-6.190739632E0,-2.516625881E0,9.665784114E0
9.655738554E0,-6.782542229E0,-7.379311562E0,-2.838534355E0,1.041702431E1
9.663945862E0,-5.830963612E0,-8.479224205E0,-3.814954519E0,1.097502883E1
9.672159016E0,-5.062746525E0,-9.331629753E0,-4.547806740E0,1.154960010E1
9.680366592E0,-4.034507751E0,-9.950095177E0,-4.887786865E0,1.179712284E1
9.688575016E0,-2.850149632E0,-1.057590294E1,-4.491312981E0,1.183828401E1
9.696782708E0,-1.892477870E0,-1.105411434E1,-4.360658646E0,1.203288246E1
9.704989900E0,-1.424870253E0,-1.124045944E1,-4.102117538E0,1.205012664E1
9.713212054E0,-1.229341030E0,-1.135780144E1,-3.925940275E0,1.207989817E1
9.721421785E0,-1.264052033E0,-1.149158096E1,-4.000173569E0,1.223338257E1
9.729631477E0,-1.534284115E0,-1.155405331E1,-4.409431458E0,1.246167169E1
9.737839592E0,-1.805325627E0,-1.180174446E1,-4.857836723E0,1.288948993E1
9.746047515E0,-1.745277405E0,-1.202546692E1,-4.996075630E0,1.313844053E1
9.754266054E0,-1.510382891E0,-1.252776146E1,-5.051160812E0,1.359192000E1
9.762473131E0,-1.698580146E0,-1.254777145E1,-4.307304382E0,1.337477529E1
9.770711361E0,-1.917566061E0,-1.230681610E1,-4.758490562E0,1.333334221E1
9.778918669E0,-2.051084995E0,-1.181328392E1,-4.449951172E0,1.278916307E1
9.787126592E0,-1.073596001E0,-1.086576080E1,-2.789770126E0,1.126943581E1
9.795347515E0,1.910915136E0,-1.024008083E1,1.146721363E0,1.047978158E1
9.803555438E0,1.235534763E1,-9.095581055E0,1.439311409E1,2.103677597E1
9.811762977E0,4.475768566E0,-9.724916458E0,3.254734993E0,1.118927184E1
9.819970477E0,2.632692456E-1,-1.006129360E1,-2.357717037E0,1.033720316E1
9.828178938E0,-1.323486805E0,-1.011308861E1,-3.166253567E0,1.067948220E1
9.836394130E0,-2.200911522E0,-9.863414764E0,-3.598890305E0,1.072767327E1
9.844602169E0,-2.991893768E0,-9.373544693E0,-4.443703175E0,1.079635431E1
9.852811938E0,-3.657752037E0,-8.790849686E0,-5.028721333E0,1.076783295E1
9.861020899E0,-4.658467770E0,-8.223304749E0,-5.707834721E0,1.104098909E1
9.869229784E0,-6.872242451E0,-6.989452362E0,-7.339408875E0,1.224528821E1
9.877451015E0,-7.658061504E0,-6.193166256E0,-6.927179337E0,1.204105593E1
9.885662746E0,-8.894526482E0,-4.625158787E0,-6.461653709E0,1.192718172E1
9.893875169E0,-1.681324005E1,3.836216927E0,-7.534497261E0,1.881941153E1
9.902086515E0,-2.702678299E1,1.737939453E1,-9.945924759E0,3.363646492E1
9.910296092E0,-2.541117477E1,2.762040329E1,-2.324012184E1,4.414428326E1
9.918511553E0,-1.475042152E1,3.292739868E1,-2.908727646E1,4.634499079E1
9.926720284E0,-1.445594978E1,3.170556068E1,-2.994062042E1,4.594189606E1
9.934929861E0,-1.740903854E1,2.794400215E1,-2.522468376E1,4.147561392E1
9.943138822E0,-1.585540485E1,2.404583359E1,-1.807295990E1,3.400335065E1
9.951348745E0,-1.230907154E1,2.068517303E1,-1.224995995E1,2.700835323E1
9.959571553E0,-8.343636513E0,1.717725372E1,-6.791161060E0,2.026805823E1
9.967780591E0,-7.488632202E0,1.609704018E1,-3.446658611E0,1.808518096E1
9.975989168E0,-2.372750759E0,1.633322334E1,9.955279350E0,1.927463924E1
9.984197976E0,1.018072510E1,1.325720501E1,4.695759964E1,4.984392453E1
9.992406861E0,-1.603617907E0,1.443195820E1,3.187248039E1,3.502439170E1
1.000062059E1,-1.030195475E0,9.062964439E0,6.027295685E1,6.095923190E1
1.000883005E1,-9.911623955E0,4.481287003E0,3.341473389E1,3.514066965E1
1.001707113E1,-1.642281723E1,8.947848320E0,9.743525505E0,2.108812947E1
1.002528240E1,-1.245545769E1,9.881426811E0,8.490690231E0,1.802422932E1
1.003349175E1,-1.999705791E0,6.999241829E0,1.124953938E1,1.339926661E1
1.004171528E1,5.094873428E0,2.862018585E0,5.560792923E0,8.066678596E0
1.004992367E1,6.357358456E0,6.495199203E-1,-3.406704187E0,7.241789563E0
1.005813301E1,5.112088203E0,-2.108794212E0,-4.761127949E0,7.297177411E0
1.006634294E1,4.545870304E0,-5.023344994E0,-2.830420017E0,7.342357198E0
1.007455151E1,4.648039818E0,-7.200601101E0,-7.925457954E-1,8.607035448E0
1.008276494E1,4.801421642E0,-8.610084534E0,3.226519823E-1,9.863635728E0
1.009097336E1,4.868749142E0,-9.343955994E0,9.980846643E-1,1.058349681E1
1.009918240E1,5.238208294E0,-9.783594131E0,2.943911076E0,1.148146997E1
1.010739244E1,6.511468410E0,-1.059589672E1,7.949518681E0,1.476032166E1
1.011560321E1,6.594581604E0,-1.076084232E1,6.237748146E0,1.407812970E1
1.012382471E1,6.433263302E0,-1.078044033E1,2.900913239E0,1.288487749E1
1.013203201E1,6.444596291E0,-1.080902576E1,2.315073729E0,1.279560181E1
1.014024098E1,8.596730232E0,-1.189152718E1,4.326407433E0,1.529803878E1
1.014845001E1,8.551224709E0,-1.207012558E1,1.581855297E0,1.487661392E1
1.015666132E1,7.344500542E0,-1.114802074E1,-3.189330816E0,1.372559237E1
1.016487701E1,7.082943916E0,-1.051465988E1,-6.020404816E0,1.403465144E1
1.017308632E1,5.823150158E0,-9.460721016E0,-6.877806664E0,1.306593067E1
1.018129644E1,4.572350502E0,-8.623412132E0,-6.400521755E0,1.167203087E1
1.018950667E1,4.373526573E0,-7.725756168E0,-6.405955315E0,1.094766215E1
1.019771613E1,4.296405315E0,-7.013381004E0,-5.572885513E0,9.934971801E0
1.020593894E1,3.496946096E0,-3.492308617E0,-1.278147817E0,5.104753992E0
1.021414913E1,-6.541211605E0,1.004754734E1,2.986530876E1,3.218194096E1
1.022235944E1,-1.063180637E1,1.906642151E1,1.668289948E1,2.747513186E1
1.023056701E1,-9.482854843E0,3.888939667E1,1.403280258E0,4.005345060E1
1.023877528E1,3.564718366E-1,5.226715088E1,-1.250763416E0,5.228332949E1
1.024699055E1,-6.658438683E0,5.889639664E1,-3.042654514E0,5.934962585E1
1.025520044E1,-1.575122356E1,5.438400650E1,-5.668891907E0,5.690217520E1
1.026344017E1,-1.429093742E1,3.025377083E1,-4.133883476E0,3.371365501E1
1.027164990E1,-8.092607498E0,1.253943539E1,-1.290728331E0,1.497977689E1
1.027985871E1,-3.878916740E0,5.277548790E0,-2.185384750E0,6.904666742E0
1.028808155E1,-3.421127498E-1,2.746849060E-1,-4.593374729E0,4.614280478E0
1.029629190E1,1.099114537E0,-2.329337120E0,-6.144207478E0,6.662218078E0
1.030449951E1,8.620999455E-1,-3.409010887E0,-5.479219913E0,6.510485574E0
1.031270690E1,6.032758951E-2,-3.806902409E0,-3.467586040E0,5.149786240E0
1.032091444E1,-9.843959808E-1,-4.605433464E0,-2.548596144E0,5.354847817E0
1.032912744E1,-3.324401379E0,-5.284292698E0,-3.216009617E0,7.022685505E0
1.033733474E1,-5.818196297E0,-5.989913940E0,-4.091661453E0,9.299041381E0
1.034554248E1,-6.828594208E0,-6.820340633E0,-4.886754036E0,1.081790692E1
1.035375051E1,-6.733096123E0,-7.720927715E0,-5.529409409E0,1.164137778E1
1.036195832E1,-5.668753147E0,-8.745210648E0,-6.180441856E0,1.211657266E1
1.037018009E1,-4.092760563E0,-9.716885567E0,-5.814623833E0,1.204069784E1
1.037838878E1,-2.920134783E0,-1.062996006E1,-5.225724220E0,1.219964883E1
1.038659717E1,-2.116971254E0,-1.111171246E1,-4.785394192E0,1.228217076E1
1.039480571E1,-1.530790687E0,-1.145033073E1,-4.520532608E0,1.240518477E1
1.040301490E1,-1.279822946E0,-1.166490364E1,-4.118615150E0,1.243667618E1
1.041122790E1,-1.444181442E0,-1.191362572E1,-4.358953476E0,1.276795258E1
1.041943628E1,-1.207328320E0,-1.177359200E1,-4.897176743E0,1.280849133E1
1.042764436E1,-1.109879375E0,-1.175245762E1,-5.609992027E0,1.306996950E1
1.043585182E1,-1.106717110E0,-1.191015053E1,-5.638739586E0,1.322391366E1
1.044406128E1,-1.169319749E0,-1.207327271E1,-5.604522705E0,1.336195709E1
1.045228297E1,-1.484601974E0,-1.195528507E1,-5.766571045E0,1.335613064E1
1.046048986E1,-1.825739861E0,-1.163332272E1,-5.963762283E0,1.319977212E1
1.046869613E1,-1.809032440E0,-1.109756279E1,-5.478394985E0,1.250765005E1
1.047690263E1,-9.288015366E-1,-1.030590916E1,-3.954149246E0,1.107744249E1
1.048511105E1,-2.495958209E-1,-9.718316078E0,-3.209060192E0,1.023748176E1
1.049332536E1,5.717281818E0,-9.085971832E0,1.374397278E1,1.743958094E1
1.050153267E1,1.145739555E1,-8.569282532E0,1.634262466E1,2.172063298E1
1.050977086E1,4.724679947E0,-9.801253319E0,4.272621155E0,1.168941653E1
1.051797667E1,9.760345221E-1,-1.052039528E1,-1.865042686E0,1.072892094E1
1.052618255E1,-1.062135458E0,-1.047378731E1,-5.256136417E0,1.176670397E1
1.053440259E1,-1.870705366E0,-1.020567322E1,-6.925906181E0,1.247491406E1
1.054260932E1,-2.952055693E0,-9.875999451E0,-8.503265381E0,1.336246684E1
1.055081571E1,-4.762305737E0,-9.297378540E0,-9.997834206E0,1.445951218E1
1.055902290E1,-8.307738304E0,-8.283617973E0,-1.209306812E1,1.684871328E1
1.056723067E1,-1.180997849E1,-6.562356949E0,-1.513868713E1,2.029088388E1
1.057544840E1,-1.307041359E1,-5.070008755E0,-1.415254116E1,1.992072091E1
1.058365467E1,-1.284693241E1,-4.283051491E0,-1.072825432E1,1.727667917E1
1.059186209E1,-1.017930126E1,-1.999487400E0,-4.964569569E0,1.150056847E1
1.060006890E1,-1.326763344E1,5.115931511E0,-3.106524706E0,1.455518286E1
1.060827609E1,-1.835002136E1,1.709546471E1,-8.917114258E0,2.661753415E1
1.061649740E1,-1.061396790E1,2.752556038E1,-1.926628876E1,3.523496376E1
1.062470394E1,-4.484737873E0,3.143795776E1,-2.667007446E1,4.146987984E1
1.063291194E1,-1.114921379E1,2.857480621E1,-2.802141953E1,4.154545066E1
1.064111901E1,-1.466712856E1,2.571528625E1,-2.375130653E1,3.795425101E1
1.064932744E1,-1.494097424E1,2.338363075E1,-1.870584297E1,3.346543679E1
1.065754159E1,-1.212028122E1,1.983412552E1,-1.204570675E1,2.618000770E1
1.066574909E1,-9.214369774E0,1.741807938E1,-7.436282635E0,2.106163334E1
1.067395682E1,-8.144645691E0,1.639867783E1,-3.605433464E0,1.866148543E1
1.068216697E1,-7.381408215E-1,1.527360725E1,1.602714729E1,2.215169025E1
1.069037420E1,1.207148457E1,1.069322205E1,5.180064011E1,5.425285295E1
1.069859544E1,4.760442734E0,1.036157513E1,3.928987122E1,4.091109916E1
1.070680109E1,6.157188892E0,3.842108727E0,6.997248840E1,7.034786356E1
1.071500805E1,-1.023286724E1,1.768507004E0,2.217197800E1,2.448337798E1
1.072321616E1,-1.983505630E1,9.894479752E0,-3.246107101E-1,2.216834591E1
1.073142390E1,-1.466314602E1,1.162805080E1,2.784519672E0,1.892017353E1
1.073963763E1,4.784679413E-1,7.161952972E0,3.449060917E0,7.963574773E0
1.074784594E1,6.782824039E0,2.863683701E0,2.489333153E-1,7.366773655E0
1.075608544E1,7.859631538E0,-4.156398773E-2,-4.652761459E0,9.133658888E0
1.076429440E1,6.764609337E0,-3.647211075E0,-2.899823427E0,8.214077186E0
1.077250236E1,5.904887199E0,-6.338481903E0,1.008532286E0,8.721306269E0
1.078072597E1,6.046510696E0,-8.488824844E0,6.200646877E0,1.212717859E1
1.078893601E1,7.828411102E0,-1.017411232E1,1.274539566E1,1.808982290E1
1.079714590E1,7.584464073E0,-1.059956169E1,1.196210194E1,1.769086448E1
1.080535486E1,6.460336685E0,-1.043314648E1,6.445203304E0,1.386099351E1
1.081356409E1,6.643199921E0,-1.057121658E1,4.334427834E0,1.321627746E1
1.082177901E1,6.741913795E0,-1.080221367E1,3.285504103E0,1.315050413E1
1.082998890E1,7.308262825E0,-1.142520428E1,2.430758953E0,1.377877307E1
1.083819790E1,7.487434387E0,-1.150062561E1,1.583473325E0,1.381424811E1
1.084640578E1,7.243700981E0,-1.124735260E1,4.439718127E-1,1.338548674E1
1.085461386E1,7.363143444E0,-1.110161114E1,-1.962963581E0,1.346532128E1
1.086283478E1,7.222678661E0,-1.074933052E1,-3.528043509E0,1.342245450E1
1.087104109E1,5.935309887E0,-1.003349686E1,-4.278482914E0,1.241790557E1
1.087924951E1,3.607218742E0,-9.463499069E0,-3.581007957E0,1.074213478E1
1.088745932E1,2.941822767E0,-8.576895714E0,-3.741065741E0,9.808824300E0
1.089566709E1,3.268198490E0,-7.715896130E0,-4.254261494E0,9.397601572E0
1.090388132E1,2.547480583E0,-5.367959499E0,-3.700602531E0,6.999936114E0
1.091208732E1,-3.096922874E0,6.559998512E0,1.580825233E1,1.739325598E1
1.092029536E1,-9.003941536E0,1.836896706E1,2.097695541E1,2.930055584E1
1.092850386E1,-7.231706619E0,2.943338013E1,1.326456928E1,3.308429000E1
1.093671466E1,5.274841785E0,4.608129120E1,-3.730469704E0,4.653198640E1
1.094493782E1,7.860081196E0,5.516976547E1,-8.089237213E0,5.631091952E1
1.095314782E1,-2.880096436E0,5.478445053E1,1.924948096E0,5.489386487E1
1.096135866E1,-1.206319714E1,4.234741211E1,3.393488169E0,4.416265164E1
1.096956990E1,-1.554631329E1,2.386679649E1,1.334074020E0,2.851476083E1
1.097777993E1,-1.559061432E1,1.073157024E1,5.200964212E-1,1.893421123E1
1.098599493E1,-1.146501541E1,2.733827591E0,7.790834904E-1,1.181217011E1
1.099420332E1,-6.144744873E0,-1.682056904E0,-1.947009563E0,6.661685314E0
1.100244213E1,-1.861444831E0,-2.958723545E0,-5.660789490E0,6.653086466E0
1.101065070E1,-4.894137383E-2,-3.221305847E0,-5.406661987E0,6.293742961E0
1.101885932E1,-7.694133520E-1,-3.170043468E0,-3.078186274E0,4.485131351E0
1.102708209E1,-2.909681797E0,-3.983721733E0,-1.145045042E0,5.064327710E0
1.103529216E1,-5.148946285E0,-5.165113449E0,-1.144635916E0,7.382427526E0
1.104350082E1,-7.584168434E0,-6.150251389E0,-1.537376642E0,9.884772629E0
1.105170943E1,-8.433822632E0,-7.100150108E0,-1.885105371E0,1.118459289E1
1.105991924E1,-8.129734039E0,-7.896586418E0,-2.392374516E0,1.158326847E1
1.106813382E1,-6.778693199E0,-8.709974289E0,-2.562074184E0,1.133042619E1
1.107634220E1,-5.636910439E0,-9.477466583E0,-2.667713642E0,1.134521169E1
1.108455066E1,-4.900198936E0,-1.016547108E1,-2.100418091E0,1.147869801E1
1.109275955E1,-3.951065540E0,-1.073481178E1,-1.778568029E0,1.157628641E1
1.110096801E1,-3.077462673E0,-1.110470772E1,-1.739639997E0,1.165382587E1
1.110918897E1,-2.499259233E0,-1.139094257E1,-1.944313288E0,1.182286867E1
1.111739874E1,-2.175104141E0,-1.158927727E1,-2.348955154E0,1.202331135E1
1.112560916E1,-2.070417404E0,-1.176126862E1,-2.751709938E0,1.225503877E1
1.113381886E1,-2.294672728E0,-1.198815250E1,-3.121675968E0,1.259865803E1
1.114202843E1,-2.515796661E0,-1.241051006E1,-3.720301628E0,1.319813006E1
1.115024240E1,-2.249503374E0,-1.258989239E1,-3.872806072E0,1.336279472E1
1.115845059E1,-2.130305767E0,-1.267594814E1,-3.660965919E0,1.336489938E1
1.116665920E1,-2.150767326E0,-1.259250259E1,-2.923268318E0,1.310505320E1
1.117486901E1,-2.319352150E0,-1.224508190E1,-2.921903849E0,1.280074011E1
1.118307828E1,-2.253210306E0,-1.172402573E1,-2.283650398E0,1.215503168E1
1.119130051E1,-1.272943974E0,-1.102521992E1,-9.233682156E-1,1.113680697E1
1.119951082E1,3.772295237E0,-1.006521606E1,5.138836861E0,1.191412733E1
1.120771970E1,5.352180481E0,-9.943372726E0,6.481549740E0,1.302025284E1
1.121592816E1,1.338253856E0,-1.054419327E1,-1.114318371E-1,1.062936273E1
1.122413743E1,-3.756719232E-1,-1.060712433E1,-2.516261101E0,1.090796891E1
1.123235332E1,-1.046204805E0,-1.049607372E1,-2.875339031E0,1.093296312E1
1.124056270E1,-1.837254286E0,-1.033567142E1,-2.651491880E0,1.082737347E1
1.124880289E1,-2.428923130E0,-9.930236816E0,-2.662202597E0,1.056392888E1
1.125701278E1,-3.912986994E0,-9.087633133E0,-3.205917358E0,1.040069465E1
1.126521936E1,-7.300079823E0,-7.704817772E0,-5.216588020E0,1.182658754E1
1.127343932E1,-1.163938332E1,-5.483229160E0,-8.131072044E0,1.522022926E1
1.128164732E1,-1.431213856E1,-2.133604527E0,-8.669057846E0,1.686837699E1
1.128985566E1,-1.476103020E1,1.500598907E0,-5.555768013E0,1.584318048E1
1.129806293E1,-2.120223999E1,1.339903355E1,-2.093722820E0,2.516848736E1
1.130627013E1,-3.287900543E1,2.393390656E1,-1.281306267E1,4.263842699E1
1.131448466E1,-1.876631355E1,2.622796249E1,-1.457189655E1,3.538955651E1
1.132269166E1,-1.108460522E1,2.932333946E1,-1.781799126E1,3.605839046E1
1.133089912E1,-1.288703442E1,2.721366119E1,-2.007343102E1,3.618841865E1
1.133910805E1,-1.738606262E1,2.430498505E1,-1.956081963E1,3.571600672E1
1.134731609E1,-1.651723480E1,2.098436165E1,-1.534697914E1,3.080084817E1
1.135553955E1,-1.326692963E1,1.803150558E1,-1.160302258E1,2.521461378E1
1.136374759E1,-9.034417152E0,1.491400528E1,-7.751233578E0,1.908218721E1
1.137195705E1,-6.904175282E0,1.323923302E1,-5.099555492E0,1.577816191E1
1.138016778E1,-6.648588181E0,1.389505196E1,-2.065998554E0,1.554170337E1
1.138837832E1,4.925582409E0,1.254078674E1,2.108627701E1,2.502326462E1
1.139659336E1,1.269398880E1,1.016773701E1,4.644812393E1,4.921329540E1
1.140480232E1,3.355293274E0,1.162748528E1,3.092182159E1,3.320565400E1
1.141301174E1,-1.287934899E0,5.289123535E0,7.254700470E1,7.275095529E1
1.142122197E1,-1.645652962E1,8.815437317E0,1.338578033E1,2.297190496E1
1.142943105E1,-2.256789017E1,1.233627701E1,4.504701138E0,2.611102697E1
1.143765278E1,-9.841494560E0,9.157409668E0,1.244244194E1,1.831741053E1
1.144586093E1,2.678163290E0,5.383192062E0,4.599555492E0,7.570153639E0
1.145406974E1,5.428275108E0,2.964516640E0,-7.784552574E0,9.942524244E0
1.146227836E1,5.331386089E0,-6.418132782E-2,-8.988954544E0,1.045127268E1
1.147048597E1,4.746188164E0,-3.548351288E0,-4.938318253E0,7.713889169E0
1.147869943E1,4.253194332E0,-6.122213364E0,-1.252507448E0,7.559096071E0
1.148690797E1,4.673223495E0,-7.960134029E0,4.024174213E-1,9.239301455E0
1.149514512E1,4.434031963E0,-9.074321747E0,2.764066219E0,1.047110389E1
1.150335378E1,9.144697189E0,-1.114595127E1,1.268248367E1,1.920164338E1
1.151156039E1,6.971566200E0,-1.061572170E1,9.390698433E0,1.579498337E1
1.151977816E1,5.540162563E0,-1.053174877E1,6.572677612E0,1.359452921E1
1.152798416E1,5.528804779E0,-1.058774662E1,6.080675125E0,1.340308437E1
1.153619089E1,6.948347092E0,-1.125731850E1,5.552881241E0,1.434716826E1
1.154439997E1,8.809270859E0,-1.167556572E1,1.835996628E0,1.474086061E1
1.155260628E1,9.597225189E0,-1.161915016E1,-1.956950188E0,1.519674425E1
1.156081728E1,9.260735512E0,-1.131606293E1,-4.411041737E0,1.527323776E1
1.156902205E1,8.537128448E0,-1.096751785E1,-5.819846630E0,1.506783411E1
1.157722643E1,5.763518333E0,-1.026470470E1,-5.057242870E0,1.281241631E1
1.158543166E1,3.671238422E0,-9.657943726E0,-3.825125694E0,1.101750676E1
1.159364028E1,3.399425268E0,-8.934834480E0,-3.417742729E0,1.015225712E1
1.160186035E1,2.495932579E0,-7.374946594E0,-2.727759123E0,8.249859789E0
1.161001708E1,1.868898511E0,-5.340865612E0,-2.472647429E0,6.175079954E0
1.161818808E1,-2.123108387E0,2.446701050E0,9.186304092E0,9.740745255E0
1.162639428E1,-9.850046158E0,1.185964870E1,2.301968002E1,2.770524039E1
1.163460059E1,-9.266194344E0,1.933900261E1,1.362813568E1,2.540837385E1
1.164281439E1,-1.652887940E0,3.851952362E1,-4.584455013E0,3.882657552E1
1.165102335E1,1.200245667E1,5.586402893E1,-2.259523010E1,6.144422770E1
1.165923343E1,9.131806374E0,5.663201904E1,-2.654102802E0,5.742490514E1
1.166744235E1,-2.502773523E0,4.849276733E1,1.324666309E1,5.033176375E1
1.167565047E1,-5.427919865E0,3.084936905E1,8.320546150E0,3.240952596E1
1.168388870E1,-4.677803516E0,1.610320091E1,4.516926289E0,1.736656409E1
1.169209597E1,-4.850887299E0,7.173334122E0,6.486877918E0,1.081976964E1
1.170030451E1,-3.689024925E0,2.531731606E0,2.086670160E0,4.936877776E0
1.170851462E1,-4.797599792E0,-5.753040314E-2,-2.912649155E0,5.612824477E0
1.171672466E1,-5.724924088E0,-2.787320614E0,-3.312472105E0,7.177491446E0
1.172494070E1,-6.762693882E0,-3.953954220E0,-2.548334599E-1,7.837902947E0
1.173315028E1,-8.914479256E0,-4.364835262E0,1.137327075E0,9.990657643E0
1.174138916E1,-1.029858017E1,-5.293580532E0,5.660703182E-1,1.159323872E1
1.174959839E1,-1.007518387E1,-6.882289410E0,-2.875251770E-1,1.220483135E1
1.175780839E1,-9.231540680E0,-8.013598442E0,-1.341127634E0,1.229787488E1
1.176603208E1,-8.126646996E0,-9.090806961E0,-2.771414757E0,1.250463523E1
1.177424051E1,-6.745704651E0,-9.958173752E0,-3.404397011E0,1.250038698E1
1.178244916E1,-5.868214607E0,-1.071305656E1,-3.484700441E0,1.270230927E1
1.179065778E1,-4.934831619E0,-1.132592392E1,-2.792337656E0,1.266594905E1
1.179886685E1,-4.086561203E0,-1.171990395E1,-1.675496936E0,1.252451280E1
1.180708128E1,-3.635502338E0,-1.195116043E1,-8.138053417E-1,1.251836219E1
1.181528797E1,-3.451236486E0,-1.207046700E1,-7.643693686E-1,1.257741894E1
1.182349493E1,-3.927708387E0,-1.247170448E1,6.560297012E-1,1.309200828E1
1.183170324E1,-3.905429840E0,-1.246798897E1,-4.684615731E-1,1.307373655E1
1.183991016E1,-3.439427853E0,-1.260421467E1,-2.426774263E0,1.328853358E1
1.184812966E1,-3.106492996E0,-1.301976204E1,-2.534848452E0,1.362314057E1
1.185633728E1,-3.051712751E0,-1.327591896E1,-3.112687111E0,1.397325288E1
1.186454458E1,-3.397301197E0,-1.346078300E1,-4.063248634E0,1.446527995E1
1.187275158E1,-3.503163338E0,-1.311215591E1,-3.233251333E0,1.395187085E1
1.188095878E1,-3.199097633E0,-1.257250786E1,-2.244599819E0,1.316588044E1
1.188917166E1,-2.280751705E0,-1.189071274E1,-1.274636745E0,1.217438198E1
1.189737832E1,1.014562130E0,-1.153242111E1,2.047670841E0,1.175665892E1
1.190558585E1,5.148749352E0,-1.106993675E1,5.829122066E0,1.352892397E1
1.191379205E1,3.824430227E0,-1.107232380E1,3.371434927E0,1.218971675E1
1.192199912E1,8.399525881E-1,-1.136565304E1,-1.016845703E0,1.144192136E1
1.193022051E1,-1.766270280E0,-1.102718353E1,-3.477045059E0,1.169650930E1
1.193842928E1,-3.437037468E0,-9.782607079E0,-2.937027216E0,1.077676931E1
1.194663862E1,-3.741044283E0,-9.112945557E0,-3.678131342E0,1.051521941E1
1.195484755E1,-3.594045639E0,-9.115229607E0,-3.539278030E0,1.041782433E1
1.196305654E1,-4.132302284E0,-8.700688362E0,-1.902774930E0,9.818271364E0
1.197127239E1,-7.300681591E0,-6.500613689E0,-1.812257767E0,9.941941875E0
1.197948258E1,-1.143088913E1,-3.548544407E0,-4.761019230E0,1.288117610E1
1.198772166E1,-1.671625710E1,-2.790498734E-1,-6.580841541E0,1.796715324E1
1.199593028E1,-1.757791710E1,1.205641747E0,-5.658340454E0,1.850550076E1
1.200413854E1,-1.920826340E1,7.666841507E0,-6.874172211E0,2.179431313E1
1.201237851E1,-3.426823044E1,2.547196388E1,-1.703288651E1,4.597011838E1
1.202058731E1,-1.672715187E1,3.185397339E1,-1.753850174E1,4.002589504E1
1.202879720E1,-4.431156158E0,3.670403671E1,-2.077495766E1,4.240778610E1
1.203700531E1,-7.860446453E0,3.412405396E1,-2.177949905E1,4.123814079E1
1.204521497E1,-1.823432922E1,2.992249298E1,-1.893838692E1,3.983100360E1
1.205343089E1,-1.970932198E1,2.484007645E1,-1.236033344E1,3.403328684E1
1.206164066E1,-1.607000732E1,1.977409554E1,-6.295197964E0,2.624670469E1
1.206984897E1,-1.085093689E1,1.560972214E1,-1.671965241E0,1.908406991E1
1.207805647E1,-7.635946274E0,1.405216694E1,1.737521172E0,1.608695282E1
1.208626389E1,5.821654201E-1,1.257171154E1,1.688401985E1,2.105841813E1
1.209448381E1,1.323183155E1,6.797329903E0,5.471202087E1,5.669823884E1
1.210269047E1,5.810389519E0,7.002223015E0,4.274053955E1,4.369834636E1
1.211089735E1,1.881736994E0,2.473149300E0,7.223488617E1,7.230170248E1
1.211910531E1,-1.316241169E1,5.956604958E0,1.476175690E1,2.065525819E1
1.212731070E1,-1.818721581E1,1.099793339E1,-5.873556137E-1,2.126203998E1
1.213552224E1,-1.004414082E1,1.091617775E1,8.521009445E0,1.710717111E1
1.214372781E1,1.990996122E0,5.898716927E0,1.171453571E1,1.326609490E1
1.215193424E1,5.799633503E0,2.469493866E0,5.269081593E0,8.215678277E0
1.216014181E1,5.404532909E0,5.678195953E-1,-3.362367868E0,6.390376573E0
1.216835028E1,4.051338673E0,-2.466455936E0,-3.887280226E0,6.132511515E0
1.217657124E1,3.631894588E0,-5.167279243E0,-1.566613674E0,6.507358257E0
1.218477939E1,4.151672363E0,-7.115407944E0,5.642845631E-1,8.257350101E0
1.219298766E1,3.842630863E0,-8.306180000E0,2.183927059E0,9.408930627E0
1.220119566E1,3.376110077E0,-8.906659126E0,4.415265560E0,1.049863163E1
1.220940416E1,6.618236542E0,-1.048025322E1,1.349569893E1,1.832404573E1
1.221761574E1,7.840932846E0,-1.115786171E1,1.353613377E1,1.921470851E1
1.222582339E1,4.101315975E0,-1.007940960E1,5.184246063E0,1.205370059E1
1.223405904E1,4.317354202E0,-1.033716011E1,4.590639591E0,1.210662622E1
1.224226528E1,4.886856079E0,-1.071353149E1,5.075552940E0,1.282272814E1
1.225047335E1,5.503731728E0,-1.131700897E1,3.495723963E0,1.306085147E1
1.225869404E1,6.805310726E0,-1.160177898E1,-1.544032097E-1,1.345129622E1
1.226690116E1,8.166562080E0,-1.157141209E1,-3.586133003E0,1.460995085E1
1.227510985E1,7.668591499E0,-1.116832256E1,-4.152078629E0,1.416963237E1
1.228331839E1,5.994699955E0,-1.071014786E1,-4.490905285E0,1.306950362E1
1.229152470E1,3.224920988E0,-1.026538754E1,-2.482108116E0,1.104260646E1
1.229973828E1,2.089082479E0,-9.594816208E0,-1.495104790E0,9.932779168E0
1.230794731E1,1.738120675E0,-8.575711250E0,-1.380046368E0,8.858239944E0
1.231615678E1,1.129414797E0,-7.171989918E0,-1.624073505E0,7.439800529E0
1.232436608E1,8.330073953E-1,-4.351758003E0,-6.498375535E-1,4.478167916E0
1.233257570E1,-6.128413677E0,8.132698059E0,2.166330338E1,2.393735460E1
1.234079931E1,-1.150323868E1,1.862770462E1,1.943753052E1,2.927684191E1
1.234900939E1,-1.116807938E1,3.304423523E1,7.628803730E0,3.570498740E1
1.235721789E1,2.580614090E0,4.683878326E1,-1.256310081E1,4.856297652E1
1.236542800E1,5.037744522E0,5.974272919E1,-6.000560284E0,6.025428851E1
1.237363662E1,-1.467002988E0,6.088105774E1,1.083430099E1,6.185497043E1
1.238186820E1,-7.829543591E0,3.980339813E1,7.867932320E0,4.132210806E1
1.239007550E1,-6.290009022E0,2.014762497E1,6.624969006E0,2.212196238E1
1.239828547E1,-1.484105229E0,8.472797394E0,7.702111721E0,1.154614174E1
1.240649543E1,4.344949722E-1,3.003280640E0,2.437845945E0,3.892502195E0
1.241470327E1,-1.033555984E0,5.914306641E-1,-1.987608433E0,2.317027295E0
1.242292370E1,-2.395330429E0,-1.270378113E0,-2.680670261E0,3.812802311E0
1.243112993E1,-3.937336445E0,-2.877048492E0,-7.195169926E-1,4.929272868E0
1.243933566E1,-5.567559242E0,-3.784890652E0,2.308305502E0,7.116978815E0
1.244754224E1,-7.686174870E0,-4.126940727E0,2.066365004E0,8.965421809E0
1.245574577E1,-9.067693710E0,-5.073202133E0,1.159831524E0,1.045493464E1
1.246395751E1,-9.423254013E0,-6.235906601E0,8.982163668E-1,1.133538883E1
1.247216293E1,-8.881852150E0,-7.440922737E0,7.900452614E-2,1.158709931E1
1.248040008E1,-7.397969246E0,-8.628046036E0,-1.121256948E0,1.142061051E1
1.248860693E1,-6.496152878E0,-9.754075050E0,-1.791146398E0,1.185538644E1
1.249681304E1,-5.653728008E0,-1.049700451E1,-2.478264809E0,1.217758353E1
1.250503093E1,-4.731537342E0,-1.105227852E1,-2.196570158E0,1.222150672E1
1.251323658E1,-4.349193573E0,-1.150434399E1,-1.535831928E0,1.239452278E1
1.252144285E1,-3.824970484E0,-1.207704544E1,-1.326373100E0,1.273753082E1
1.252964974E1,-3.485808134E0,-1.242178440E1,-1.435440779E0,1.298122014E1
1.253785697E1,-3.222743034E0,-1.246595192E1,-1.342810154E0,1.294562355E1
1.254606931E1,-3.382043123E0,-1.245090389E1,-1.616684914E0,1.300295711E1
1.255427589E1,-3.942123413E0,-1.255193710E1,-2.666612148E0,1.342394437E1
1.256248270E1,-5.153198242E0,-1.294836235E1,-4.786208630E0,1.473510545E1
1.257068916E1,-6.087564468E0,-1.357385445E1,-6.525693893E0,1.624477290E1
1.257889581E1,-5.522232533E0,-1.446021271E1,-6.626992226E0,1.683775014E1
1.258711804E1,-3.698288918E0,-1.438822937E1,-3.831642628E0,1.534209798E1
1.259532724E1,-2.222901821E0,-1.295942402E1,1.524298191E-1,1.314957027E1
1.260353539E1,1.151101780E1,-1.224626923E1,1.196059990E1,2.062839283E1
1.261173974E1,1.227240372E1,-1.159672165E1,9.458134651E0,1.935335002E1
1.261994527E1,5.023406029E0,-1.137049770E1,3.867593765E0,1.301849099E1
1.262815847E1,-1.308653355E-1,-1.115881443E1,-5.009481907E-1,1.117081977E1
1.263636820E1,-1.777909040E0,-1.082174683E1,-2.138752699E0,1.117342508E1
1.264457727E1,-2.880519152E0,-1.025891304E1,-2.865288019E0,1.103415438E1
1.265278677E1,-3.674297810E0,-8.940006256E0,-4.020419598E0,1.046842634E1
1.266099531E1,-5.309364319E0,-8.388508797E0,-5.172397614E0,1.119420057E1
1.266921612E1,-6.570061207E0,-7.978963375E0,-4.100072861E0,1.111935962E1
1.267742347E1,-7.670081139E0,-7.002040386E0,-1.979399085E0,1.057245170E1
1.268563220E1,-1.015850639E1,-5.141544342E0,8.834576607E-2,1.138589194E1
1.269384108E1,-1.357637119E1,-3.193809032E0,-1.764572740E0,1.405816446E1
1.270205008E1,-1.796046448E1,-1.249671936E0,-4.336009026E0,1.851866460E1
1.271026397E1,-2.687885284E1,3.198112488E0,-7.207581043E0,2.801160256E1
1.271847220E1,-3.623371887E1,1.758274651E1,-1.363576317E1,4.252022337E1
1.272671077E1,-2.997738075E1,2.601913452E1,-1.474873543E1,4.234576620E1
1.273491970E1,-1.224950123E1,3.186165047E1,-2.039951134E1,3.976625597E1
1.274312612E1,-7.403827190E0,3.135329056E1,-2.290693665E1,3.952939707E1
1.275134716E1,-1.137344456E1,2.785677338E1,-2.326656342E1,3.803535247E1
1.275955631E1,-1.492252636E1,2.509033966E1,-1.884297562E1,3.474571437E1
1.276776381E1,-1.405313492E1,2.190754700E1,-1.152462959E1,2.846486086E1
1.277597081E1,-1.235258293E1,1.847588730E1,-5.763334274E0,2.295998124E1
1.278417743E1,-7.764212608E0,1.614877319E1,3.173189878E0,1.819711535E1
1.279239050E1,7.521276474E0,1.387677383E1,3.857199478E1,4.167653096E1
1.280059970E1,1.117045999E0,1.549072075E1,3.576995087E1,3.899614861E1
1.280880866E1,-1.963851452E0,1.462132072E1,7.733209991E1,7.872670074E1
1.281701766E1,-1.041947365E1,1.423472309E1,3.006027222E1,3.485416386E1
1.282522485E1,-1.022015572E1,1.160537624E1,1.381195068E1,2.073418246E1
1.283344827E1,-8.696680069E0,1.199754810E1,1.386265182E1,2.029153815E1
1.284165608E1,-2.078186989E0,7.825529099E0,1.313349342E1,1.542875291E1
1.284986370E1,1.938287377E0,2.003796577E0,1.308661938E1,1.338027524E1
1.285807093E1,3.448722363E0,-1.084077835E0,4.994598389E0,6.165624360E0
1.286627781E1,3.230427265E0,-3.280508518E0,-2.926152229E0,5.455250986E0
1.287449016E1,2.894069910E0,-5.571528435E0,-2.525542259E0,6.767269275E0
1.288269735E1,3.243767977E0,-7.333050728E0,-1.377058029E-2,8.018469511E0
1.289090366E1,3.591587067E0,-8.465244293E0,2.185442448E0,9.451773235E0
1.289911104E1,3.793873549E0,-9.428336143E0,3.840636015E0,1.086450569E1
1.290731850E1,3.969296455E0,-9.839818954E0,4.849946976E0,1.166616205E1
1.291553781E1,5.920596600E0,-1.038179588E1,9.174636841E0,1.506682153E1
1.292374639E1,8.840932846E0,-1.137830734E1,1.195214844E1,1.872115979E1
1.293195327E1,6.917897224E0,-1.091477966E1,6.540943146E0,1.448356497E1
1.294016046E1,4.947715759E0,-1.032206917E1,2.824851036E0,1.179002911E1
1.294836643E1,4.259329796E0,-1.031428814E1,1.234076023E0,1.122717123E1
1.295657754E1,3.858915806E0,-1.037715912E1,9.085305929E-1,1.110864935E1
1.296478404E1,3.607915640E0,-1.064705467E1,1.128953695E0,1.129829035E1
1.297302158E1,4.326993465E0,-1.099557400E1,8.201355934E-1,1.184475168E1
1.298122900E1,5.051394463E0,-1.105895424E1,5.660521984E-1,1.217117373E1
1.298943743E1,4.919824600E0,-1.077645111E1,1.578594446E-1,1.184742555E1
1.299765985E1,3.262016296E0,-1.021969795E1,-7.785919905E-1,1.075589057E1
1.300586639E1,2.846626759E0,-9.711741447E0,-1.227566719E0,1.019451450E1
1.301407339E1,2.592596054E0,-8.981850624E0,-1.324017525E0,9.441833367E0
1.302228158E1,2.175476551E0,-6.923435211E0,7.954361439E-1,7.300641890E0
1.303049027E1,-2.036543369E0,4.007533073E0,1.622651291E1,1.683768248E1
1.303870466E1,-5.553529739E0,1.665279388E1,1.768704796E1,2.491964892E1
1.304691289E1,-1.838973403E0,4.200241089E1,6.521703243E0,4.254546929E1
1.305512293E1,3.503749609E0,5.548866653E1,-5.377810478E0,5.585865395E1
1.306333239E1,-7.868191004E-1,6.316804886E1,1.927107573E0,6.320233559E1
1.307154112E1,-1.086193180E1,5.807033157E1,2.964127779E0,5.915176265E1
1.307978258E1,-2.007314301E1,4.171286011E1,2.199015617E0,4.634360191E1
1.308799193E1,-1.108692741E1,1.992364502E1,3.357544184E0,2.304657661E1
1.309620139E1,-3.926031590E0,6.866954803E0,1.228264570E0,8.004837673E0
1.310441008E1,-1.121221066E0,6.966876984E-1,-1.469487786E0,1.975323969E0
1.311261831E1,3.433378935E-1,-2.208934307E0,-3.284183979E0,3.972799528E0
1.312083058E1,7.080490589E-1,-3.017577648E0,-4.102531433E0,5.141777173E0
1.312903846E1,1.159000397E-1,-3.197996616E0,-3.589694738E0,4.809004418E0
1.313724654E1,-1.291334391E0,-3.049260616E0,-1.958477020E0,3.847228490E0
1.314545281E1,-3.340550423E0,-3.773435593E0,5.356935263E-1,5.068043099E0
1.315365912E1,-4.979508400E0,-4.670256615E0,6.344873905E-1,6.856338309E0
1.316187877E1,-6.351825237E0,-5.508279324E0,-3.887997270E-1,8.416530769E0
1.317008566E1,-7.251535416E0,-6.075952053E0,-1.682158709E0,9.608934236E0
1.317829200E1,-7.439914227E0,-6.940843582E0,-3.155009508E0,1.065277984E1
1.318649789E1,-7.456088066E0,-7.765135765E0,-3.996293306E0,1.148307201E1
1.319470512E1,-6.912434578E0,-8.586380959E0,-4.763153553E0,1.200813564E1
1.320291816E1,-5.813070774E0,-9.534493446E0,-4.813236237E0,1.216000001E1
1.321112573E1,-4.672729969E0,-1.027779007E1,-4.118607521E0,1.201791588E1
1.321936381E1,-4.031925201E0,-1.095193100E1,-3.340595245E0,1.213922527E1
1.322757162E1,-3.482138157E0,-1.148618031E1,-2.732280254E0,1.230946707E1
1.323577808E1,-3.110094547E0,-1.163380814E1,-2.376290321E0,1.227456458E1
1.324399823E1,-3.334744692E0,-1.179189396E1,-1.809459686E0,1.238722849E1
1.325220623E1,-3.229169846E0,-1.190476990E1,-1.775452852E0,1.246207515E1
1.326041419E1,-2.868527412E0,-1.194384575E1,-2.852471352E0,1.261033281E1
1.326862308E1,-2.699961185E0,-1.209612751E1,-3.390963554E0,1.284930835E1
1.327683027E1,-2.768782139E0,-1.230206871E1,-4.388945580E0,1.335177488E1
1.328504354E1,-3.757295132E0,-1.277102757E1,-5.998808861E0,1.460144238E1
1.329325058E1,-4.193670750E0,-1.269695854E1,-6.266585350E0,1.476718397E1
1.330145677E1,-3.362124443E0,-1.202391434E1,-4.304920673E0,1.320646579E1
1.330966304E1,-2.282487631E0,-1.131653023E1,-2.594136715E0,1.183229274E1
1.331786873E1,1.553328419E1,-1.030275536E1,1.531923485E1,2.412692773E1
1.332608973E1,1.458947468E1,-9.978137016E0,1.177125931E1,2.123625521E1
1.333429350E1,6.760193825E0,-1.043416405E1,5.181739807E0,1.346931429E1
1.334249866E1,-8.054907322E-1,-1.074925995E1,-1.507203817E0,1.088425781E1
1.335070339E1,-1.491480350E0,-1.056314850E1,-3.177004814E0,1.113094692E1
1.335890973E1,-1.253014803E0,-1.039055538E1,-3.407709599E0,1.100664217E1
1.336712189E1,-1.106822848E0,-9.718670845E0,-3.483385801E0,1.038323632E1
1.337532873E1,-1.791256309E0,-9.417128563E0,-4.669861794E0,1.066295075E1
1.338353442E1,-3.104760647E0,-8.936790466E0,-5.920331001E0,1.116046960E1
1.339173992E1,-5.952260971E0,-7.684921265E0,-8.085929871E0,1.264395853E1
1.339994616E1,-1.187995911E1,-5.195931435E0,-1.199322701E1,1.766263360E1
1.340818346E1,-1.469224548E1,-2.553705215E0,-1.356600189E1,2.015985851E1
1.341639039E1,-2.124727440E1,3.721179962E-1,-1.384157753E1,2.536088346E1
1.342459623E1,-2.306738853E1,8.298336029E0,-1.077122116E1,2.677659426E1
1.343280231E1,-2.609210396E1,1.464165688E1,-1.011032581E1,3.158155622E1
1.344100804E1,-1.940706635E1,2.337267685E1,-1.032555771E1,3.208634272E1
1.344921950E1,-5.956458092E0,2.862025452E1,-1.607458305E1,3.336151348E1
1.345742412E1,-6.905411243E0,2.718141174E1,-1.850961876E1,3.360237842E1
1.346565927E1,-1.234981251E1,2.440095711E1,-1.770881844E1,3.258108082E1
1.347386181E1,-1.487323761E1,2.227736664E1,-1.368151760E1,3.007786869E1
1.348206408E1,-1.345555305E1,1.961198997E1,-9.271977425E0,2.552746803E1
1.349028123E1,-1.095941734E1,1.670972824E1,-6.114170074E0,2.089753388E1
1.349848623E1,-6.928462982E0,1.420467281E1,-1.753867865E0,1.590133270E1
1.350669227E1,8.756173253E-1,1.219066715E1,9.341290474E0,1.538306793E1
1.351489677E1,2.807416916E0,1.212051296E1,1.653575706E1,2.069346964E1
1.352310200E1,-2.079895020E0,1.346396637E1,1.484991264E1,2.015252488E1
1.353131304E1,2.361699581E0,1.309941006E1,2.667226410E1,2.980908990E1
1.353951958E1,-1.373199344E0,7.939149857E0,6.583206177E1,6.632326992E1
1.354772581E1,-1.301357555E1,8.881789207E0,2.490660286E1,2.947165069E1
1.355593312E1,-1.488408470E1,1.157105255E1,1.292685223E1,2.285888762E1
1.356413912E1,-7.224562168E0,1.057108212E1,1.011357021E1,1.631644502E1
1.357235792E1,5.838806629E-1,5.354166985E0,8.867887497E0,1.037532888E1
1.358056466E1,3.866805792E0,1.579917908E0,4.327808857E0,6.014836418E0
1.358877004E1,4.070879936E0,-7.489218712E-1,-5.878391266E-1,4.180729872E0
1.359697508E1,3.948326826E0,-3.792924404E0,-1.310106993E0,5.629559538E0
1.360518008E1,4.163246632E0,-6.245782852E0,2.398478985E-1,7.509990211E0
1.361339092E1,4.480635643E0,-7.806468487E0,1.784866929E0,9.176208147E0
