"Time (s)","Gyroscope x (rad/s)","Gyroscope y (rad/s)","Gyroscope z (rad/s)","Absolute (rad/s)"
7.255307000E-3,-9.456194043E-1,9.028588533E-1,8.124507964E-2,1.309943102E0
9.540997000E-3,-9.798278809E-1,8.454375267E-1,8.979719132E-2,1.297262820E0
1.157603500E-2,-9.975429177E-1,8.191702962E-1,9.529497474E-2,1.294300189E0
1.360649700E-2,-1.031140566E0,7.623597980E-1,1.001819000E-1,1.286265813E0
1.552676900E-2,-1.068403363E0,7.079927921E-1,1.111774743E-1,1.286506887E0
1.774234300E-2,-1.102000952E0,6.487388611E-1,1.160643995E-1,1.284032380E0
1.971230400E-2,-1.119716048E0,6.163630486E-1,1.307251602E-1,1.284817693E0
2.171492000E-2,-1.151481032E0,5.528330207E-1,1.490511149E-1,1.285981785E0
2.361157700E-2,-1.183246017E0,5.088507533E-1,1.637118906E-1,1.298384307E0
2.582738100E-2,-1.194241524E0,4.917465150E-1,1.740965992E-1,1.303202624E0
2.763111500E-2,-1.210124016E0,4.538728893E-1,1.899790913E-1,1.306327979E0
2.988911200E-2,-1.228450060E0,4.184426963E-1,2.028072625E-1,1.313512324E0
3.177757700E-2,-1.236391306E0,4.062253833E-1,2.076941878E-1,1.317884441E0
3.399322700E-2,-1.244943380E0,3.836233616E-1,2.186897546E-1,1.320937588E0
3.596203800E-2,-1.240667343E0,3.671300113E-1,2.278527319E-1,1.313756739E0
3.820880400E-2,-1.232726097E0,3.579670191E-1,2.345722616E-1,1.304905423E0
4.005069200E-2,-1.224784851E0,3.518583775E-1,2.357939780E-1,1.295955651E0
4.221484300E-2,-1.200350165E0,3.426954150E-1,2.388483137E-1,1.270956012E0
4.410215300E-2,-1.158811331E0,3.353650272E-1,2.394591719E-1,1.229900035E0
4.636149700E-2,-1.102611780E0,3.396410644E-1,2.388483137E-1,1.178200877E0
4.816211500E-2,-1.072679400E0,3.420845270E-1,2.382374406E-1,1.150834479E0
5.042288100E-2,-1.001208186E0,3.408628106E-1,2.333505303E-1,1.083077909E0
5.227838400E-2,-9.150761366E-1,3.433062732E-1,2.339613885E-1,1.004968390E0
5.452749700E-2,-8.210029006E-1,3.426954150E-1,2.333505303E-1,9.197490855E-1
5.647238400E-2,-7.739662528E-1,3.433062732E-1,2.345722616E-1,8.785824398E-1
5.869745800E-2,-6.695083380E-1,3.463605940E-1,2.339613885E-1,7.892686533E-1
6.061157700E-2,-5.674937963E-1,3.536909819E-1,2.327396572E-1,7.080354988E-1
6.273626600E-2,-5.125159621E-1,3.536909819E-1,2.315179259E-1,6.643571871E-1
6.463261500E-2,-4.074471295E-1,3.597996235E-1,2.315179259E-1,5.908210240E-1
6.688261200E-2,-2.987131178E-1,3.665191531E-1,2.247984111E-1,5.235457401E-1
6.867088400E-2,-1.887573600E-1,3.738495409E-1,2.205223590E-1,4.733106074E-1
7.094434300E-2,-1.313360333E-1,3.781255782E-1,2.180788964E-1,4.558360578E-1
7.277600000E-2,-2.199114859E-2,3.909537494E-1,2.180788964E-1,4.482040270E-1
7.504842000E-2,8.735372871E-2,4.068362415E-1,2.131919712E-1,4.675438139E-1
7.687026900E-2,1.942551434E-1,4.245513380E-1,2.174680233E-1,5.150448917E-1
7.926018900E-2,2.461786866E-1,4.398229718E-1,2.156354338E-1,5.482215178E-1
8.128234300E-2,3.457497358E-1,4.721988440E-1,2.211332172E-1,6.256313034E-1
8.321141900E-2,4.416555762E-1,5.057964325E-1,2.229658216E-1,7.075333467E-1
8.502850000E-2,4.825835526E-1,5.290092826E-1,2.241875380E-1,7.503317656E-1
8.732315000E-2,5.644394755E-1,5.723807216E-1,2.278527319E-1,8.355408305E-1
8.908973000E-2,6.340781450E-1,6.218608022E-1,2.278527319E-1,9.168875715E-1
9.138541900E-2,6.908885837E-1,6.811147332E-1,2.333505303E-1,9.978460727E-1
9.318469200E-2,7.134906054E-1,7.116580009E-1,2.357939780E-1,1.034951571E0
9.548926600E-2,7.531968355E-1,7.739662528E-1,2.388483137E-1,1.106064081E0
9.732823000E-2,7.788531780E-1,8.387179971E-1,2.449569702E-1,1.170497360E0
9.965668900E-2,7.910705209E-1,9.034696817E-1,2.492330223E-1,1.226444917E0
1.016395380E-1,7.953465581E-1,9.352346659E-1,2.516764700E-1,1.253228261E0
1.037306500E-1,7.929030657E-1,9.950994849E-1,2.602286041E-1,1.298705965E0
1.056236150E-1,7.837401032E-1,1.050688267E0,2.651155293E-1,1.337340879E0
1.078825730E-1,7.745771408E-1,1.102000952E0,2.712241709E-1,1.374022706E0
1.096901150E-1,7.617489696E-1,1.125824690E0,2.742784917E-1,1.386712449E0
1.119395730E-1,7.446447611E-1,1.171639562E0,2.791654170E-1,1.416039693E0
1.137984610E-1,7.202101350E-1,1.211345792E0,2.877175212E-1,1.438347190E0
1.160447660E-1,7.079927921E-1,1.226006508E0,2.901609838E-1,1.445177895E0
1.178980770E-1,6.829473376E-1,1.255938888E0,2.950479090E-1,1.459744095E0
1.202576890E-1,6.548475623E-1,1.276097536E0,2.974913716E-1,1.464838342E0
1.220971530E-1,6.291912198E-1,1.282817006E0,2.981022298E-1,1.459577337E0
1.242631890E-1,6.163630486E-1,1.289536476E0,2.981022298E-1,1.460024887E0
1.261578840E-1,5.907067060E-1,1.288925648E0,3.017674387E-1,1.449595573E0
1.284158810E-1,5.662720799E-1,1.283427835E0,2.999348342E-1,1.434507574E0
1.302255770E-1,5.564982295E-1,1.280373573E0,2.968805134E-1,1.427299830E0
1.324726890E-1,5.332853794E-1,1.265712738E0,2.932153046E-1,1.404420609E0
1.343185770E-1,5.106833577E-1,1.247997642E0,2.883284092E-1,1.378923086E0
1.365783420E-1,4.911356568E-1,1.228450060E0,2.877175212E-1,1.353914752E0
1.384230380E-1,4.807509482E-1,1.213178396E0,2.877175212E-1,1.336302611E0
1.407454190E-1,4.642575979E-1,1.184467673E0,2.877175212E-1,1.304331307E0
1.427767300E-1,4.459316432E-1,1.155757070E0,2.901609838E-1,1.272329686E0
1.447519960E-1,4.306600094E-1,1.125213742E0,2.950479090E-1,1.240414156E0
1.466102300E-1,4.263839424E-1,1.111774802E0,2.981022298E-1,1.227481738E0
1.488682270E-1,4.141666293E-1,1.083674908E0,3.042109013E-1,1.199345478E0
1.506721920E-1,4.135557711E-1,1.055575132E0,3.023782969E-1,1.173328543E0
1.529248810E-1,4.153883755E-1,1.039692640E0,3.029891551E-1,1.159875302E0
1.547958840E-1,4.172209501E-1,1.006705880E0,3.042109013E-1,1.131403696E0
1.570306120E-1,4.312708676E-1,9.786061049E-1,3.029891551E-1,1.111515586E0
1.588817690E-1,4.422664344E-1,9.492846131E-1,3.005456924E-1,1.089526773E0
1.612450730E-1,4.593706727E-1,9.211847782E-1,2.981022298E-1,1.071665876E0
1.632181920E-1,4.636467099E-1,9.077457786E-1,2.895501256E-1,1.059627267E0
1.651974960E-1,4.862487316E-1,8.668177724E-1,2.755002379E-1,1.031363787E0
1.670542300E-1,5.082398653E-1,8.289441466E-1,2.583959997E-1,1.006093759E0
1.693154580E-1,5.192354321E-1,8.136724830E-1,2.553416789E-1,9.984326299E-1
1.711266150E-1,5.369505286E-1,7.770205736E-1,2.406809032E-1,9.746815578E-1
1.733724190E-1,5.577199459E-1,7.385360599E-1,2.339613885E-1,9.545810500E-1
1.752248070E-1,5.674937963E-1,7.238753438E-1,2.321287990E-1,9.486456143E-1
1.774773420E-1,5.821545720E-1,6.896668673E-1,2.333505303E-1,9.321999804E-1
1.793275760E-1,5.968153477E-1,6.536257863E-1,2.400700450E-1,9.170871574E-1
1.816448040E-1,6.114761233E-1,6.218608022E-1,2.455678284E-1,9.060449575E-1
1.836174580E-1,6.163630486E-1,6.072000265E-1,2.504547536E-1,9.007346243E-1
1.856202650E-1,6.279694438E-1,5.815436840E-1,2.626720667E-1,8.952850347E-1
1.874818840E-1,6.426302195E-1,5.552765131E-1,2.736676335E-1,8.923001617E-1
1.897381110E-1,6.536257863E-1,5.326744914E-1,2.834414840E-1,8.895548646E-1
1.915512300E-1,6.585127115E-1,5.302310586E-1,2.950479090E-1,8.954536478E-1
1.937953810E-1,6.676757336E-1,5.210680366E-1,3.121521473E-1,9.026304598E-1
1.955985760E-1,6.762278080E-1,5.161811113E-1,3.292563558E-1,9.122152903E-1
1.979001500E-1,6.792821288E-1,5.167919993E-1,3.414736688E-1,9.192945380E-1
1.997311530E-1,6.896668673E-1,5.290092826E-1,3.665191531E-1,9.433066831E-1
2.021131880E-1,6.927211881E-1,5.363397002E-1,3.915646076E-1,9.596070865E-1
2.039625380E-1,6.939429045E-1,5.534439087E-1,4.208861589E-1,9.823451906E-1
2.061190730E-1,6.957755089E-1,5.564982295E-1,4.349360466E-1,9.914450075E-1
2.080168840E-1,6.988298297E-1,5.748242140E-1,4.605923891E-1,1.015347899E0
2.102717650E-1,7.000515461E-1,5.858197808E-1,4.874704778E-1,1.034835470E0
2.121036530E-1,7.012733221E-1,5.925393105E-1,5.088507533E-1,1.049674328E0
2.143289960E-1,7.000515461E-1,5.949827433E-1,5.192354321E-1,1.055311360E0
2.161958070E-1,6.988298297E-1,5.986479521E-1,5.381723046E-1,1.066007472E0
2.184336500E-1,6.976081133E-1,6.029239893E-1,5.571091175E-1,1.077285935E0
2.202803070E-1,6.914994717E-1,6.035348773E-1,5.626068711E-1,1.076546496E0
2.226018040E-1,6.908885837E-1,6.053674817E-1,5.821545720E-1,1.087520468E0
2.245329610E-1,6.792821288E-1,6.084218025E-1,5.937610269E-1,1.088188153E0
2.266439190E-1,6.743952036E-1,6.139195561E-1,6.053674817E-1,1.094612214E0
2.285361150E-1,6.701191664E-1,6.163630486E-1,6.114761233E-1,1.096752549E0
2.307969190E-1,6.591235995E-1,6.249151230E-1,6.212499738E-1,1.100415540E0
2.327852270E-1,6.487388611E-1,6.352998614E-1,6.346889734E-1,1.107834878E0
2.348547270E-1,6.401867867E-1,6.438519955E-1,6.450737119E-1,1.113779425E0
2.368906500E-1,6.371324658E-1,6.475171447E-1,6.524040699E-1,1.118412850E0
2.389603040E-1,6.291912198E-1,6.542366743E-1,6.615670323E-1,1.123199962E0
2.408486920E-1,6.255260110E-1,6.585127115E-1,6.664539576E-1,1.126535689E0
2.431743030E-1,6.188064814E-1,6.627888083E-1,6.737843752E-1,1.129688386E0
2.451973800E-1,6.188064814E-1,6.658431292E-1,6.762278080E-1,1.132939796E0
2.471261880E-1,6.169738770E-1,6.670648456E-1,6.811147332E-1,1.135583354E0
2.489847690E-1,6.114761233E-1,6.762278080E-1,6.890559793E-1,1.142797112E0
2.512439190E-1,6.096435189E-1,6.823364496E-1,6.933320761E-1,1.148023353E0
2.530902300E-1,6.084218025E-1,6.921103001E-1,6.982190013E-1,1.156158956E0
2.553018030E-1,6.096435189E-1,6.982190013E-1,7.067710757E-1,1.165633024E0
2.573374960E-1,6.041457057E-1,7.043276429E-1,7.116580009E-1,1.169412918E0
2.593673800E-1,6.053674817E-1,7.061602473E-1,7.134906054E-1,1.172263164E0
2.612527300E-1,6.004805565E-1,7.092145681E-1,7.153232098E-1,1.172710321E0
2.635008030E-1,5.962044597E-1,7.202101350E-1,7.183775306E-1,1.179079587E0
2.654192690E-1,5.949827433E-1,7.244861722E-1,7.177666426E-1,1.180708953E0
2.675438420E-1,5.919284225E-1,7.312057018E-1,7.128797174E-1,1.180355255E0
2.694629230E-1,5.833762884E-1,7.440338731E-1,7.086036801E-1,1.181538604E0
2.716983030E-1,5.827654600E-1,7.599163651E-1,6.988298297E-1,1.185517437E0
2.735414610E-1,5.772676468E-1,7.721336484E-1,6.945537925E-1,1.188205907E0
2.757554960E-1,5.772676468E-1,7.990117669E-1,6.878342628E-1,1.201987401E0
2.776320760E-1,5.760459304E-1,8.301658630E-1,6.811147332E-1,1.218573573E0
2.798606110E-1,5.784893632E-1,8.552113175E-1,6.731734872E-1,1.232557863E0
2.816977690E-1,5.772676468E-1,8.717046976E-1,6.707300544E-1,1.242169804E0
2.840738800E-1,5.797111392E-1,8.985827565E-1,6.682865620E-1,1.261000755E0
2.858725760E-1,5.827654600E-1,9.230173826E-1,6.652322412E-1,1.278323357E0
2.880796110E-1,5.839871764E-1,9.352346659E-1,6.646214128E-1,1.287410783E0
2.900097300E-1,5.882632136E-1,9.596692920E-1,6.572909951E-1,1.303476203E0
2.922323030E-1,5.937610269E-1,9.871582389E-1,6.524040699E-1,1.323882403E0
2.940431920E-1,5.968153477E-1,1.009149432E0,6.462954283E-1,1.338756481E0
2.962897650E-1,5.998696685E-1,1.020144939E0,6.432411075E-1,1.346958960E0
2.981318460E-1,6.041457057E-1,1.033583999E0,6.383541822E-1,1.356754944E0
3.003941110E-1,6.053674817E-1,1.048244715E0,6.377432942E-1,1.368211708E0
3.022440380E-1,6.084218025E-1,1.058629513E0,6.365215778E-1,1.376965233E0
3.045624570E-1,6.065891981E-1,1.063516378E0,6.383541822E-1,1.380765586E0
3.065400380E-1,6.084218025E-1,1.076955438E0,6.420193911E-1,1.393628000E0
3.085726880E-1,6.090326309E-1,1.085507512E0,6.487388611E-1,1.403605861E0
3.104255760E-1,6.133087277E-1,1.087950945E0,6.530149579E-1,1.409330830E0
3.126903030E-1,6.151412725E-1,1.089783549E0,6.664539576E-1,1.417810935E0
3.145028070E-1,6.194173694E-1,1.089172721E0,6.817256212E-1,1.426437842E0
3.167471110E-1,6.255260110E-1,1.081231475E0,6.939429045E-1,1.428951030E0
3.186002690E-1,6.249151230E-1,1.079398870E0,7.024950385E-1,1.431474803E0
3.208506880E-1,6.298020482E-1,1.067792416E0,7.116580009E-1,1.429436383E0
3.227098460E-1,6.346889734E-1,1.056185961E0,7.208209634E-1,1.427564968E0
3.250628800E-1,6.438519955E-1,1.042136073E0,7.250970602E-1,1.423502277E0
3.270859190E-1,6.493497491E-1,1.036638379E0,7.281513810E-1,1.423544400E0
3.290089190E-1,6.609562039E-1,1.029918790E0,7.324274182E-1,1.426199755E0
3.308717300E-1,6.762278080E-1,1.025031924E0,7.360926270E-1,1.431714654E0
3.331262260E-1,6.829473376E-1,1.017090678E0,7.354817390E-1,1.428924037E0
3.349357690E-1,6.872233748E-1,9.938777685E-1,7.373143435E-1,1.415521609E0
3.371828800E-1,6.994407177E-1,9.761626720E-1,7.379252315E-1,1.409483780E0
3.390361150E-1,7.189884186E-1,9.743300676E-1,7.422012687E-1,1.420255664E0
3.412864190E-1,7.305948138E-1,9.761626720E-1,7.446447611E-1,1.428691067E0
3.431374610E-1,7.605272532E-1,9.792169929E-1,7.525860071E-1,1.450397642E0
3.454539180E-1,7.898487449E-1,9.816604257E-1,7.568620443E-1,1.469815766E0
3.474280380E-1,8.252789378E-1,9.847147465E-1,7.593054771E-1,1.492411895E0
3.494583420E-1,8.399397135E-1,9.859365225E-1,7.586946487E-1,1.501061997E0
3.513154230E-1,8.729264140E-1,9.902125597E-1,7.556403279E-1,1.521023913E0
3.535756110E-1,9.089674950E-1,9.938777685E-1,7.489207983E-1,1.541070176E0
3.553807690E-1,9.248499870E-1,9.950994849E-1,7.452555895E-1,1.549508431E0
3.576327260E-1,9.602801800E-1,9.969320893E-1,7.318165898E-1,1.565748107E0
3.596684570E-1,9.950994849E-1,9.993755221E-1,7.189884186E-1,1.583009401E0
3.617377650E-1,1.032973170E0,1.001819015E0,6.951646209E-1,1.598101611E0
3.637731880E-1,1.051299095E0,9.993755221E-1,6.805039048E-1,1.602206849E0
3.659503410E-1,1.086118460E0,9.828822017E-1,6.511823535E-1,1.603043726E0
3.677859990E-1,1.118494272E0,9.535606503E-1,6.157521605E-1,1.593567719E0
3.699561110E-1,1.130100727E0,9.382890463E-1,5.998696685E-1,1.586618293E0
3.718416920E-1,1.156978726E0,8.930850029E-1,5.644394755E-1,1.566777750E0
3.741088030E-1,1.174693823E0,8.417723179E-1,5.283984542E-1,1.538730366E0
3.759208840E-1,1.192408919E0,7.837401032E-1,4.862487316E-1,1.507489771E0
3.781664950E-1,1.196684957E0,7.562511563E-1,4.679227769E-1,1.490946821E0
3.800244220E-1,1.209513187E0,7.079927921E-1,4.239404798E-1,1.464206773E0
3.822720340E-1,1.226617455E0,6.609562039E-1,3.750712574E-1,1.442959436E0
3.843070340E-1,1.242499948E0,6.212499738E-1,3.323107064E-1,1.428351517E0
3.864396110E-1,1.254717231E0,5.998696685E-1,3.084869385E-1,1.424543134E0
3.884117640E-1,1.274875760E0,5.589417219E-1,2.602286041E-1,1.416136638E0
3.904808030E-1,1.301753879E0,5.277875662E-1,2.193006277E-1,1.421694637E0
3.924227300E-1,1.329853654E0,5.021312237E-1,1.740965992E-1,1.432115963E0
3.946327640E-1,1.340849161E0,4.868595898E-1,1.508837193E-1,1.434459700E0
3.964391530E-1,1.365283847E0,4.660901725E-1,1.050688252E-1,1.446471393E0
3.986884950E-1,1.392772794E0,4.416555762E-1,6.230825558E-2,1.462449323E0
4.005398460E-1,1.406211853E0,4.294382632E-1,3.665191308E-2,1.470779508E0
4.027926870E-1,1.427592039E0,4.074471295E-1,-4.886921961E-3,1.484606371E0
4.048275720E-1,1.445307136E0,3.927863538E-1,-5.192354694E-2,1.498629337E0
4.070052640E-1,1.467909217E0,3.781255782E-1,-9.773843735E-2,1.518976374E0
4.090273030E-1,1.475850463E0,3.720169365E-1,-1.197295859E-1,1.526717513E0
4.109509570E-1,1.499674201E0,3.579670191E-1,-1.643227488E-1,1.550537024E0
4.128344610E-1,1.522887111E0,3.524692357E-1,-2.034181207E-1,1.576324410E0
4.150686110E-1,1.552208543E0,3.494149148E-1,-2.388483137E-1,1.608878697E0
4.168908840E-1,1.569923639E0,3.500257730E-1,-2.516764700E-1,1.628041560E0
4.191267640E-1,1.609629869E0,3.506366611E-1,-2.761110961E-1,1.670356765E0
4.209891530E-1,1.659109950E0,3.555235863E-1,-2.858849466E-1,1.720689702E0
4.232330720E-1,1.684155464E0,3.622430861E-1,-2.901609838E-1,1.746938201E0
4.250916920E-1,1.739133358E0,3.720169365E-1,-2.895501256E-1,1.801893646E0
4.274021490E-1,1.798998117E0,3.915646076E-1,-2.809980214E-1,1.862438444E0
4.293096150E-1,1.858862996E0,4.037819207E-1,-2.700024247E-1,1.921278946E0
4.314437260E-1,1.890017033E0,4.129449129E-1,-2.614503205E-1,1.952189580E0
4.333398070E-1,1.955990553E0,4.196644127E-1,-2.333505303E-1,2.014067956E0
4.355959570E-1,2.025629044E0,4.239404798E-1,-2.040289938E-1,2.079549563E0
4.374075380E-1,2.097711325E0,4.117231667E-1,-1.667662114E-1,2.144229404E0
4.396532260E-1,2.140471935E0,3.995058835E-1,-1.478293836E-1,2.182447842E0
4.415578460E-1,2.222327709E0,3.573561609E-1,-1.111774743E-1,2.253620266E0
4.437586870E-1,2.310903311E0,2.981022298E-1,-7.024950534E-2,2.331110045E0
4.456883070E-1,2.355496407E0,2.614503205E-1,-5.436700583E-2,2.370585447E0
4.479724180E-1,2.441017628E0,1.551597714E-1,-2.138028294E-2,2.446037353E0
4.498741530E-1,2.518597364E0,3.176499158E-2,-3.054326167E-3,2.518799521E0
4.519794950E-1,2.574796915E0,-9.407325089E-2,4.886921961E-3,2.576519515E0
4.539741150E-1,2.594344616E0,-1.594358236E-1,1.832595794E-3,2.599239721E0
4.561322260E-1,2.610227108E0,-3.029891551E-1,-9.162978269E-3,2.627769386E0
4.579421150E-1,2.594955444E0,-4.508185387E-1,-3.176499158E-2,2.634015970E0
4.601895330E-1,2.551584244E0,-5.992587805E-1,-6.414084882E-2,2.621794669E0
4.620536920E-1,2.519208193E0,-6.780604124E-1,-7.819075137E-2,2.610036328E0
4.642951100E-1,2.430022001E0,-8.173376918E-1,-1.026253626E-1,2.565848747E0
4.661413070E-1,2.313957453E0,-9.450085163E-1,-1.301143020E-1,2.502872334E0
4.684641490E-1,2.184454203E0,-1.056796908E0,-1.588249654E-1,2.431848112E0
4.704205760E-1,2.109317780E0,-1.111774802E0,-1.734857261E-1,2.390682330E0
4.724735330E-1,1.962099195E0,-1.227228284E0,-2.009746730E-1,2.322996627E0
4.743203450E-1,1.808161139E0,-1.354288220E0,-2.266310006E-1,2.270441565E0
4.765918800E-1,1.731802940E0,-1.428202987E0,-2.431243658E-1,2.257878352E0
4.783869220E-1,1.563204169E0,-1.573588848E0,-2.840523422E-1,2.236174159E0
4.806496100E-1,1.367727280E0,-1.706757545E0,-3.329215646E-1,2.212359826E0
4.825086920E-1,1.104444385E0,-1.781893969E0,-3.866777122E-1,2.131774652E0
4.847550330E-1,9.376781583E-1,-1.765400529E0,-4.111123085E-1,2.040806871E0
4.866074990E-1,4.630358517E-1,-1.521054506E0,-4.691445231E-1,1.657741112E0
4.889689950E-1,-1.203404516E-1,-1.104444385E0,-5.400048494E-1,1.235266959E0
4.908737690E-1,-7.073819637E-1,-6.774495840E-1,-6.139195561E-1,1.155951730E0
4.929152640E-1,-9.773843884E-1,-4.862487316E-1,-6.505714655E-1,1.270811278E0
4.948566530E-1,-1.417207360E0,-1.698205322E-1,-7.452555895E-1,1.610193035E0
4.970333790E-1,-1.720196486E0,4.276056588E-2,-8.717046976E-1,1.928930661E0
4.988499990E-1,-1.819156647E0,9.162978828E-2,-9.450085163E-1,2.052015599E0
5.010914560E-1,-1.922392964E0,9.224065393E-2,-1.130100727E0,2.231867089E0
5.031266490E-1,-1.957212210E0,-6.597344577E-2,-1.335962296E0,2.370617511E0
5.051572640E-1,-1.956601381E0,-1.936442852E-1,-1.444085479E0,2.439501987E0
5.069934220E-1,-1.933388472E0,-4.874704778E-1,-1.656666517E0,2.592327602E0
5.092910330E-1,-1.878410578E0,-7.941248417E-1,-1.835039139E0,2.743433834E0
5.112258450E-1,-1.796554685E0,-1.089783549E0,-1.984701157E0,2.890376377E0
5.132638790E-1,-1.739133358E0,-1.229671717E0,-2.048841953E0,2.955407031E0
5.150959610E-1,-1.605353832E0,-1.463633180E0,-2.147802114E0,3.054903752E0
5.173822260E-1,-1.428202987E0,-1.603521228E0,-2.202169180E0,3.075807731E0
5.191888450E-1,-1.342681766E0,-1.659720898E0,-2.214386463E0,3.075869827E0
5.214394560E-1,-1.154535294E0,-1.715309620E0,-2.213164806E0,3.028751772E0
5.233430760E-1,-9.608910084E-1,-1.719585657E0,-2.197282314E0,2.950988975E0
5.255438020E-1,-7.483099103E-1,-1.665218711E0,-2.176512957E0,2.840797375E0
5.273968070E-1,-6.316346526E-1,-1.605353832E0,-2.162462950E0,2.766291610E0
5.297559560E-1,-3.732386529E-1,-1.475239515E0,-2.142304420E0,2.627757019E0
5.315763450E-1,-9.407325089E-2,-1.312749386E0,-2.130697966E0,2.504403032E0
5.337614560E-1,2.040289938E-1,-1.127657294E0,-2.128254414E0,2.417168933E0
5.357970330E-1,3.500257730E-1,-1.031140566E0,-2.126421928E0,2.389024723E0
5.379149180E-1,6.695083380E-1,-8.155050874E-1,-2.134363174E0,2.380923376E0
5.398329610E-1,9.902125597E-1,-6.029239893E-1,-2.144136906E0,2.437490784E0
5.419719560E-1,1.314581990E0,-4.056145251E-1,-2.162462950E0,2.562985556E0
5.440074950E-1,1.467298269E0,-3.268128932E-1,-2.172847748E0,2.642165440E0
5.460779180E-1,1.761124492E0,-1.887573600E-1,-2.197893143E0,2.822750978E0
5.479851150E-1,2.032348633E0,-8.857546002E-2,-2.223549604E0,3.013711901E0
5.502461870E-1,2.280359983E0,-1.466076635E-2,-2.235766888E0,3.193573260E0
5.521391150E-1,2.404365540E0,1.710422710E-2,-2.260812283E0,3.300384581E0
5.542883410E-1,2.620611906E0,5.497787148E-2,-2.284636021E0,3.477095207E0
5.561763070E-1,2.806925774E0,6.719517708E-2,-2.321898699E0,3.643427103E0
5.584409560E-1,2.901609898E0,7.086037099E-2,-2.339003086E0,3.727639552E0
5.602543070E-1,3.060434818E0,5.436700583E-2,-2.375654936E0,3.874655265E0
5.624973020E-1,3.199101210E0,2.443460934E-2,-2.408030748E0,4.004180027E0
5.644090760E-1,3.321885109E0,-2.748893574E-2,-2.441628456E0,4.122769195E0
5.666007250E-1,3.380528212E0,-4.825835302E-2,-2.456289053E0,4.178953909E0
5.684623840E-1,3.487429619E0,-1.007927656E-1,-2.489275932E0,4.285886046E0
5.708124180E-1,3.578448534E0,-1.594358236E-1,-2.521651745E0,4.380575443E0
5.727151150E-1,3.659082890E0,-2.278527319E-1,-2.555860281E0,4.469141555E0
5.747594560E-1,3.691458702E0,-2.632829249E-1,-2.573575258E0,4.507712819E0
5.766641920E-1,3.753156185E0,-3.249803185E-1,-2.599231720E0,4.576876565E0
5.788759180E-1,3.795305729E0,-3.891211748E-1,-2.626720667E0,4.631999819E0
5.807006530E-1,3.815464258E0,-4.159992337E-1,-2.637716055E0,4.657077287E0
5.829327640E-1,3.850894451E0,-4.618141353E-1,-2.656652927E0,4.701113182E0
5.848253450E-1,3.885102987E0,-5.088507533E-1,-2.681698322E0,4.748100694E0
5.870374560E-1,3.923587561E0,-5.479460955E-1,-2.703078747E0,4.795979460E0
5.888858070E-1,3.940691710E0,-5.699372888E-1,-2.711630821E0,4.817345885E0
5.912047250E-1,3.971235037E0,-6.181956530E-1,-2.722015619E0,4.854095448E0
5.931439990E-1,4.012773991E0,-6.499606371E-1,-2.732400179E0,4.898041922E0
5.952778020E-1,4.031099796E0,-6.603453159E-1,-2.734843731E0,4.915810385E0
5.971624990E-1,4.075081825E0,-6.768386960E-1,-2.729345798E0,4.951134314E0
5.994298410E-1,4.128227234E0,-6.597344875E-1,-2.711630821E0,4.983016295E0
6.012339220E-1,4.188703060E0,-5.882632136E-1,-2.687196255E0,5.011218479E0
6.034860330E-1,4.219246387E0,-5.192354321E-1,-2.667037725E0,5.018439572E0
6.053507680E-1,4.269337177E0,-3.213151097E-1,-2.623055458E0,5.021046033E0
6.075908410E-1,4.309043407E0,-8.735372871E-2,-2.577240467E0,5.021718250E0
6.094519990E-1,4.315762997E0,2.070833147E-1,-2.521040916E0,5.002433512E0
6.118033790E-1,4.297437191E0,3.909537494E-1,-2.491108418E0,4.982613009E0
6.136285380E-1,4.209472179E0,8.374962807E-1,-2.426967621E0,4.930641731E0
6.158086480E-1,4.050036430E0,1.349401355E0,-2.368935347E0,4.882164866E0
6.177320380E-1,3.831957579E0,1.601688623E0,-2.336559534E0,4.765376773E0
6.199603790E-1,3.710395575E0,2.075720072E0,-2.267531872E0,4.818438536E0
6.219479170E-1,3.453221321E0,2.470949888E0,-2.196671486E0,4.780763167E0
6.240167640E-1,3.194214344E0,2.767219543E0,-2.120924234E0,4.728512333E0
6.260509560E-1,3.065321684E0,2.866790533E0,-2.084882975E0,4.686301527E0
6.281205330E-1,2.822197437E0,2.979189873E0,-2.005470514E0,4.567524784E0
6.301554940E-1,2.608394623E0,2.986520290E0,-1.922392964E0,4.406656404E0
6.322878790E-1,2.419637203E0,2.891225100E0,-1.833817482E0,4.192459103E0
6.342922680E-1,2.337781191E0,2.811812639E0,-1.786170006E0,4.069633215E0
6.362961870E-1,2.191173553E0,2.602896690E0,-1.697594523E0,3.802386078E0
6.382508450E-1,2.078163624E0,2.350609541E0,-1.604743004E0,3.524106890E0
6.404124170E-1,1.979814291E0,2.072054863E0,-1.514334917E0,3.241340189E0
6.423065380E-1,1.935221076E0,1.928501606E0,-1.467909217E0,3.101444265E0
6.444688400E-1,1.854586840E0,1.657888293E0,-1.379333735E0,2.844406351E0
6.465041100E-1,1.777006984E0,1.390940189E0,-1.301753879E0,2.605193197E0
6.485729560E-1,1.734857321E0,1.268156290E0,-1.262047648E0,2.492130528E0
6.504571530E-1,1.656055689E0,1.046412110E0,-1.192408919E0,2.293324613E0
6.527852630E-1,1.586417079E0,8.753699064E-1,-1.116661668E0,2.128362023E0
6.547151150E-1,1.520443559E0,7.574729323E-1,-1.036027431E0,1.989690101E0
6.567330330E-1,1.492343783E0,7.208209634E-1,-9.957103729E-1,1.933419762E0
6.586618070E-1,1.444085479E0,6.713408828E-1,-9.217956662E-1,1.840051277E0
6.608508020E-1,1.466076612E0,7.929030657E-1,-8.625417352E-1,1.876713657E0
6.627817680E-1,1.497230768E0,9.034696817E-1,-8.442157507E-1,1.941818136E0
6.649073020E-1,1.555873752E0,1.087340117E0,-8.313875794E-1,2.072258904E0
6.669271530E-1,1.591303945E0,1.215621829E0,-8.332201838E-1,2.168926128E0
6.690113020E-1,1.610851645E0,1.312749386E0,-8.436049223E-1,2.242726742E0
6.708864990E-1,1.609019041E0,1.352455616E0,-8.497135639E-1,2.267177013E0
6.731784940E-1,1.593747377E0,1.430646420E0,-8.600982428E-1,2.307931729E0
6.751323840E-1,1.560149789E0,1.505172014E0,-8.704829812E-1,2.336097339E0
6.771510330E-1,1.509448051E0,1.561371565E0,-8.778133392E-1,2.342407062E0
6.790389990E-1,1.461800575E0,1.565647602E0,-8.833111525E-1,2.316970420E0
6.812680330E-1,1.362840414E0,1.534493446E0,-8.863654733E-1,2.235541966E0
6.832554560E-1,1.222341299E0,1.443474531E0,-8.930850029E-1,2.091730813E0
6.853243020E-1,1.153924465E0,1.377501130E0,-8.955284357E-1,2.007740574E0
6.873211150E-1,9.792169929E-1,1.220508814E0,-9.046914577E-1,1.807477335E0
6.894284940E-1,7.953465581E-1,1.029918790E0,-9.169087410E-1,1.591863845E0
6.913020760E-1,5.998696685E-1,8.185594082E-1,-9.254608750E-1,1.373448563E0
6.936407250E-1,4.972442985E-1,7.104362845E-1,-9.303477407E-1,1.271817017E0
6.954888070E-1,2.944370508E-1,4.978551865E-1,-9.260717034E-1,1.091861605E0
6.976460330E-1,8.307767659E-2,2.657263875E-1,-9.156870246E-1,9.570763503E-1
6.995701910E-1,-1.185078546E-1,2.809980139E-2,-9.071348906E-1,9.152745053E-1
7.017974560E-1,-2.235766798E-1,-9.590584040E-2,-8.772025108E-1,9.103124227E-1
7.036514220E-1,-4.288274050E-1,-3.494149148E-1,-8.374962807E-1,1.003685083E0
7.058548020E-1,-6.340781450E-1,-6.059783101E-1,-7.770205736E-1,1.171761827E0
7.078898020E-1,-7.360926270E-1,-7.385360599E-1,-7.446447611E-1,1.281313267E0
7.099596480E-1,-9.309586287E-1,-9.834930301E-1,-6.719517708E-1,1.511774352E0
7.119953790E-1,-1.117272496E0,-1.209513187E0,-5.876523852E-1,1.748300691E0
7.141282250E-1,-1.288314819E0,-1.403768301E0,-4.868595898E-1,1.966558613E0
7.160588840E-1,-1.367116451E0,-1.486235142E0,-4.300491214E-1,2.064665720E0
7.181709560E-1,-1.510669708E0,-1.607797384E0,-3.097086847E-1,2.227791477E0
7.200868840E-1,-1.630399346E0,-1.668272972E0,-1.838704348E-1,2.339902792E0
7.223239170E-1,-1.728748679E0,-1.674381614E0,-5.192354694E-2,2.407243619E0
7.241518070E-1,-1.770287514E0,-1.655444860E0,1.588249579E-2,2.423771404E0
7.263806090E-1,-1.838093519E0,-1.591303945E0,1.478293836E-1,2.435711304E0
7.282684990E-1,-1.889406204E0,-1.492954612E0,2.718350291E-1,2.423357910E0
7.304852250E-1,-1.910786510E0,-1.434922457E0,3.341432810E-1,2.412832210E0
7.325203790E-1,-1.941940665E0,-1.300532103E0,4.514294267E-1,2.380400350E0
7.346983400E-1,-1.963320851E0,-1.158811331E0,5.601634383E-1,2.347606343E0
7.366830380E-1,-1.978592515E0,-1.017701507E0,6.548475623E-1,2.319346897E0
7.386448790E-1,-1.981035948E0,-9.450085163E-1,7.006624341E-1,2.304012233E0
7.405182300E-1,-1.984701157E0,-7.935139537E-1,7.788531780E-1,2.274931944E0
7.427613400E-1,-1.988366365E0,-6.462954283E-1,8.448266387E-1,2.255001249E0
7.447481860E-1,-1.999972820E0,-5.112941861E-1,9.004153609E-1,2.252123631E0
7.468171480E-1,-2.004248857E0,-4.404338300E-1,9.217956662E-1,2.249600563E0
7.488516480E-1,-2.014022827E0,-3.017674387E-1,9.639453292E-1,2.253118313E0
7.508811860E-1,-2.030516148E0,-1.624901593E-1,1.007927656E0,2.272733385E0
7.528780760E-1,-2.037235498E0,-9.773843735E-2,1.025642753E0,2.282942035E0
7.550124550E-1,-2.061670303E0,3.543018550E-2,1.058018565E0,2.317572657E0
7.569359610E-1,-2.087937355E0,1.637118906E-1,1.086729288E0,2.359505145E0
7.590533400E-1,-2.106874228E0,2.846632004E-1,1.109331250E0,2.398034189E0
7.609783450E-1,-2.123367548E0,3.414736688E-1,1.124602914E0,2.426937520E0
7.632054550E-1,-2.149024010E0,4.526511431E-1,1.145983219E0,2.477190907E0
7.650270760E-1,-2.178345442E0,5.595525503E-1,1.166752577E0,2.533692857E0
7.672624940E-1,-2.189341068E0,6.072000265E-1,1.178359032E0,2.559381994E0
7.691243840E-1,-2.214997292E0,6.982190013E-1,1.200350165E0,2.614299771E0
7.713663010E-1,-2.250427485E0,7.812966704E-1,1.229060888E0,2.680566921E0
7.732261150E-1,-2.285246849E0,8.631525636E-1,1.265101910E0,2.750975891E0
7.755786480E-1,-2.302350998E0,9.028588533E-1,1.282206178E0,2.785682485E0
7.774153070E-1,-2.345722437E0,9.804387093E-1,1.323134065E0,2.866070056E0
7.795841090E-1,-2.386650562E0,1.055575132E0,1.364672899E0,2.944940048E0
7.814876150E-1,-2.426356792E0,1.128268123E0,1.404990077E0,3.022282806E0
7.837362630E-1,-2.448958874E0,1.157589674E0,1.423316002E0,3.059941480E0
7.855939610E-1,-2.487443209E0,1.214400053E0,1.457524419E0,3.128341196E0
7.877929940E-1,-2.521040916E0,1.265712738E0,1.496008992E0,3.193073589E0
7.897981910E-1,-2.550362349E0,1.313360333E0,1.528995752E0,3.250706306E0
7.918979550E-1,-2.559525490E0,1.337184072E0,1.543045640E0,3.274174983E0
7.937973070E-1,-2.575407982E0,1.379333735E0,1.565036774E0,3.314306553E0
7.960663780E-1,-2.589457750E0,1.425759435E0,1.560760736E0,3.342761655E0
7.980873070E-1,-2.599842548E0,1.451415777E0,1.542434692E0,3.353340695E0
8.000743010E-1,-2.598620653E0,1.496008992E0,1.498452425E0,3.352048907E0
8.019314610E-1,-2.588846922E0,1.534493446E0,1.452026725E0,3.341433844E0
8.041919170E-1,-2.569299221E0,1.554041147E0,1.398881435E0,3.312583832E0
8.060099220E-1,-2.555860281E0,1.560149789E0,1.371392488E0,3.293509754E0
8.082493400E-1,-2.525927782E0,1.556484699E0,1.320079803E0,3.247393796E0
8.101042300E-1,-2.487443209E0,1.536326051E0,1.265101910E0,3.185616784E0
8.123544170E-1,-2.431854486E0,1.513113260E0,1.221730471E0,3.113848635E0
8.142288070E-1,-2.405587435E0,1.498452425E0,1.204626322E0,3.079502419E0
8.165681860E-1,-2.346944332E0,1.464854836E0,1.176526427E0,3.006353576E0
8.184862680E-1,-2.271197081E0,1.440420270E0,1.157589674E0,2.927996002E0
8.205140320E-1,-2.229047298E0,1.426981211E0,1.148426652E0,2.885101560E0
8.223748070E-1,-2.149634838E0,1.405600905E0,1.137431145E0,2.808984416E0
8.246311860E-1,-2.060448408E0,1.398881435E0,1.131933331E0,2.735615101E0
8.264878070E-1,-1.962099195E0,1.397048831E0,1.138652802E0,2.664227634E0
8.286883010E-1,-1.917505980E0,1.404990077E0,1.145983219E0,2.638958855E0
8.307234940E-1,-1.814880610E0,1.439809442E0,1.179580808E0,2.599664158E0
8.327925700E-1,-1.718363881E0,1.510058880E0,1.237002134E0,2.600620412E0
8.348274170E-1,-1.667662144E0,1.558928132E0,1.279762745E0,2.617087433E0
8.369587630E-1,-1.586417079E0,1.696983695E0,1.379333735E0,2.701672512E0
8.389623400E-1,-1.511280656E0,1.878410578E0,1.509448051E0,2.844438247E0
8.410316860E-1,-1.430035591E0,2.088548183E0,1.653001308E0,3.023152102E0
8.430403450E-1,-1.387885809E0,2.208277941E0,1.729970336E0,3.129778881E0
8.451839550E-1,-1.287093043E0,2.445293665E0,1.882075787E0,3.343393318E0
8.471713400E-1,-1.171028733E0,2.670091867E0,2.036624670E0,3.556478444E0
8.492405700E-1,-1.082453251E0,2.853351593E0,2.177734613E0,3.749113015E0
8.511449990E-1,-1.073901057E0,2.889392614E0,2.234544992E0,3.807235806E0
8.533450700E-1,-1.114829063E0,2.847853661E0,2.315179348E0,3.835774984E0
8.552211530E-1,-1.152702689E0,2.791043282E0,2.378709316E0,3.844073894E0
8.575582630E-1,-1.164309144E0,2.739119768E0,2.423302412E0,3.838070800E0
8.594453840E-1,-1.153924465E0,2.700635195E0,2.426967621E0,3.809874533E0
8.615647240E-1,-1.122159481E0,2.619390249E0,2.393980980E0,3.721772711E0
8.635999930E-1,-1.045801282E0,2.527760267E0,2.307848930E0,3.579027658E0
8.657177630E-1,-9.743300676E-1,2.365270138E0,2.240653753E0,3.400639814E0
8.675640760E-1,-9.431759119E-1,2.252260208E0,2.064724445E0,3.197709161E0
8.697749160E-1,-9.046914577E-1,1.933999419E0,1.844812989E0,2.821729142E0
8.718098400E-1,-8.888089061E-1,1.496008992E0,1.584584475E0,2.353493602E0
8.738796470E-1,-8.906415105E-1,1.235780358E0,1.450194120E0,2.103201935E0
8.757781530E-1,-9.248499870E-1,6.438519955E-1,1.167363524E0,1.622538286E0
8.780476090E-1,-9.859365225E-1,-1.954768784E-2,8.814785480E-1,1.322670544E0
8.800183400E-1,-1.098335743E0,-7.171558142E-1,5.980370641E-1,1.441631782E0
8.820894160E-1,-1.161254883E0,-1.070846796E0,4.685336351E-1,1.647649699E0
8.840096530E-1,-1.313971162E0,-1.742798567E0,2.321287990E-1,2.194937548E0
8.862416470E-1,-1.460578799E0,-2.340224743E0,4.092797264E-2,2.758915978E0
8.880420760E-1,-1.547932506E0,-2.602285862E0,-3.237585723E-2,3.028041437E0
8.902984160E-1,-1.700037956E0,-3.042109013E0,-1.301143020E-1,3.487332222E0
8.921636140E-1,-1.842980504E0,-3.319441795E0,-1.368338168E-1,3.799209716E0
8.944029160E-1,-1.956601381E0,-3.415347576E0,-4.398229718E-2,3.936346336E0
8.962830760E-1,-1.998751044E0,-3.400075912E0,2.993239649E-2,3.944162509E0
8.986155320E-1,-2.061670303E0,-3.247970581E0,2.254092693E-1,3.853648489E0
9.005476140E-1,-2.065946341E0,-2.925433636E0,4.642575979E-1,3.611347582E0
9.025600320E-1,-2.017076969E0,-2.445293665E0,7.287622094E-1,3.252561293E0
9.044395760E-1,-1.976149082E0,-2.177123785E0,8.680394888E-1,3.065701506E0
9.066759930E-1,-1.875356317E0,-1.596190929E0,1.141096234E0,2.714201064E0
9.084951910E-1,-1.740965962E0,-9.517280459E-1,1.409266114E0,2.433676177E0
9.107325700E-1,-1.670716405E0,-6.249151230E-1,1.538158655E0,2.355364996E0
9.127391910E-1,-1.524719596E0,2.871066704E-2,1.771509171E0,2.337485591E0
9.148356860E-1,-1.367116451E0,6.902777553E-1,1.988977194E0,2.510283061E0
9.168701470E-1,-1.207680583E0,1.328021049E0,2.183232307E0,2.826417451E0
9.190023010E-1,-1.127046347E0,1.631010175E0,2.277916431E0,3.019822996E0
9.209748010E-1,-9.773843884E-1,2.192395449E0,2.442239285E0,3.424384729E0
9.230438010E-1,-8.442157507E-1,2.682920218E0,2.581516504E0,3.817720339E0
9.250043840E-1,-7.330383062E-1,3.098308563E0,2.693304777E0,4.170222025E0
9.271978780E-1,-6.860016584E-1,3.276681185E0,2.736065388E0,4.323573946E0
9.290355760E-1,-6.047565937E-1,3.583335638E0,2.805704117E0,4.591078351E0
9.312556470E-1,-5.516113043E-1,3.803857803E0,2.845410347E0,4.782255667E0
9.332914930E-1,-5.314527750E-1,3.882659435E0,2.850297213E0,4.845789981E0
9.353611850E-1,-4.935791194E-1,4.000556469E0,2.851518869E0,4.937533015E0
9.373237300E-1,-4.624249935E-1,4.060421467E0,2.830749512E0,4.971317950E0
9.395743780E-1,-4.434881806E-1,4.044538975E0,2.779436827E0,4.927498996E0
9.414446910E-1,-4.349360466E-1,4.013995647E0,2.745228529E0,4.882377505E0
9.435820700E-1,-3.982841372E-1,3.954130650E0,2.671313763E0,4.788496284E0
9.454939220E-1,-3.433062732E-1,3.878383398E0,2.587625265E0,4.674988930E0
9.477344550E-1,-2.785545588E-1,3.783088446E0,2.491108418E0,4.538168351E0
9.495829990E-1,-2.480112910E-1,3.726888895E0,2.442850113E0,4.463040120E0
9.517921080E-1,-1.753183305E-1,3.604715824E0,2.333505154E0,4.297669018E0
9.537203070E-1,-1.007927656E-1,3.462384224E0,2.215608358E0,4.111834638E0
9.558967620E-1,-2.504547499E-2,3.290731192E0,2.084882975E0,3.895674020E0
9.579318390E-1,1.343903504E-2,3.196657896E0,2.018298864E0,3.780520152E0
9.600645700E-1,9.162978828E-2,3.004235268E0,1.878410578E0,3.544326715E0
9.621111080E-1,1.679879427E-1,2.802038908E0,1.726916075E0,3.295736810E0
9.640710320E-1,2.021963894E-1,2.696359158E0,1.653612256E0,3.169490429E0
9.660271140E-1,2.834414840E-1,2.485610723E0,1.496008992E0,2.914900109E0
9.681884930E-1,3.591887653E-1,2.272418737E0,1.336573124E0,2.660701261E0
9.700221140E-1,4.355469346E-1,2.057394028E0,1.171639562E0,2.407345131E0
9.722461850E-1,4.709770977E-1,1.943162322E0,1.086729288E0,2.275671282E0
9.741616910E-1,5.375614166E-1,1.715920448E0,9.144652486E-1,2.017325445E0
9.763504930E-1,5.998696685E-1,1.495398164E0,7.434229851E-1,1.774468096E0
9.783825760E-1,6.652322412E-1,1.296256065E0,6.615670323E-1,1.600151449E0
9.805624550E-1,6.988298297E-1,1.205847979E0,5.009095073E-1,1.480993860E0
9.825390760E-1,7.611380816E-1,1.025031924E0,3.439171314E-1,1.322233194E0
9.845077620E-1,8.277224302E-1,8.588765264E-1,1.954768747E-1,1.208720198E0
9.863738070E-1,8.619308472E-1,7.782423496E-1,1.221730486E-1,1.167695249E0
9.886251080E-1,9.266825914E-1,6.426302195E-1,-1.160643995E-2,1.127762800E0
9.904400760E-1,9.981538057E-1,5.277875662E-1,-1.374446750E-1,1.137436492E0
9.926830700E-1,1.061072946E0,4.190535545E-1,-2.516764700E-1,1.168256275E0
9.947181850E-1,1.091616154E0,3.701843321E-1,-3.084869385E-1,1.193241995E0
9.967476850E-1,1.142318010E0,2.736676335E-1,-4.135557711E-1,1.245316340E0
9.986851910E-1,1.186911225E0,1.728748679E-1,-5.167919993E-1,1.306031373E0
1.000880147E0,1.209513187E0,1.288925707E-1,-5.668829679E-1,1.341973079E0
1.002851647E0,1.244943380E0,3.176499158E-2,-6.664539576E-1,1.412463774E0
1.004903762E0,1.272432327E0,-8.613199741E-2,-7.684684992E-1,1.488975011E0
1.006939070E0,1.294423461E0,-2.028072625E-1,-8.631525636E-1,1.568979041E0
1.009056070E0,1.299310327E0,-2.645046413E-1,-9.071348906E-1,1.606568934E0
1.010984730E0,1.312138557E0,-3.848451078E-1,-9.999864101E-1,1.694044324E0
1.013112916E0,1.320690632E0,-5.094616413E-1,-1.092227101E0,1.787941540E0
1.015001268E0,1.320690632E0,-5.821545720E-1,-1.141096234E0,1.839898994E0
1.017217147E0,1.315192819E0,-7.379252315E-1,-1.230893493E0,1.946629032E0
1.019176653E0,1.307251573E0,-8.967501521E-1,-1.322523236E0,2.064493938E0
1.021430301E0,1.300532103E0,-1.053742528E0,-1.411709547E0,2.189675983E0
1.023366070E0,1.298088670E0,-1.125213742E0,-1.453248382E0,2.250126890E0
1.025435993E0,1.291369081E0,-1.270599723E0,-1.533882618E0,2.373784667E0
1.027361268E0,1.296866894E0,-1.406211853E0,-1.611462474E0,2.501221066E0
1.029586839E0,1.298088670E0,-1.530217409E0,-1.676825047E0,2.615022323E0
1.031401268E0,1.302364707E0,-1.590693116E0,-1.709200978E0,2.673541921E0
1.033642954E0,1.305419087E0,-1.714698792E0,-1.765400529E0,2.785848159E0
1.035537614E0,1.309084177E0,-1.826487064E0,-1.813658953E0,2.887752617E0
1.037746570E0,1.317636371E0,-1.928501606E0,-1.860084653E0,2.985833044E0
1.039622807E0,1.323745012E0,-1.974927306E0,-1.879632354E0,3.030784801E0
1.041913916E0,1.331075311E0,-2.063502789E0,-1.911397338E0,3.111791289E0
1.043879614E0,1.338405728E0,-2.156354427E0,-1.938275456E0,3.193447362E0
1.045956147E0,1.338405728E0,-2.204001904E0,-1.948049307E0,3.231694662E0
1.047914768E0,1.340238333E0,-2.296242476E0,-1.954768777E0,3.300013525E0
1.050108916E0,1.340849161E0,-2.389093876E0,-1.966986060E0,3.372636977E0
1.051942230E0,1.334740520E0,-2.479501963E0,-1.967597008E0,3.435243837E0
1.054166954E0,1.329242826E0,-2.517375708E0,-1.971262097E0,3.462649448E0
1.056019384E0,1.319468975E0,-2.594344616E0,-1.973094702E0,3.516351101E0
1.058272223E0,1.311527729E0,-2.658485651E0,-1.968818665E0,3.558637081E0
1.060118768E0,1.297477722E0,-2.711630821E0,-1.960266590E0,3.588737279E0
1.062485723E0,1.295645237E0,-2.731789351E0,-1.958433986E0,3.602337201E0
1.064409460E0,1.287093043E0,-2.766608715E0,-1.955379605E0,3.624119436E0
1.066430416E0,1.277930140E0,-2.785545588E0,-1.948049307E0,3.631427511E0
1.068316922E0,1.274264932E0,-2.797762871E0,-1.947438359E0,3.639195565E0
1.070547146E0,1.272432327E0,-2.812423706E0,-1.943162322E0,3.647559587E0
1.072425537E0,1.266323686E0,-2.819753885E0,-1.938275456E0,3.648492757E0
1.074603954E0,1.265712738E0,-2.824640989E0,-1.936442852E0,3.651087012E0
1.076547076E0,1.269988894E0,-2.824640989E0,-1.933388472E0,3.650953231E0
1.078707877E0,1.268767118E0,-2.827695131E0,-1.928501606E0,3.650307960E0
1.080577384E0,1.269377947E0,-2.825251818E0,-1.919338584E0,3.643793189E0
1.082875877E0,1.271821499E0,-2.820975780E0,-1.908953905E0,3.635868437E0
1.084829999E0,1.273043156E0,-2.822808266E0,-1.905288696E0,3.635795703E0
1.086949416E0,1.265101910E0,-2.814867020E0,-1.893071413E0,3.620452811E0
1.088869653E0,1.264491081E0,-2.808147430E0,-1.875967145E0,3.606089629E0
1.091101569E0,1.257771492E0,-2.800817251E0,-1.858252048E0,3.588825306E0
1.092916884E0,1.256549835E0,-2.793486834E0,-1.848478198E0,3.577619016E0
1.095158300E0,1.247386813E0,-2.781269550E0,-1.827097893E0,3.553831859E0
1.097193377E0,1.238223910E0,-2.763554335E0,-1.804495931E0,3.525143483E0
1.099262723E0,1.232726097E0,-2.750726223E0,-1.792278647E0,3.506903354E0
1.101171037E0,1.215621829E0,-2.714685202E0,-1.770287514E0,3.461382680E0
1.103476069E0,1.201571941E0,-2.653598547E0,-1.750739813E0,3.398595338E0
1.105321922E0,1.173472166E0,-2.558303595E0,-1.722640038E0,3.299915591E0
1.107481762E0,1.167974353E0,-2.493551970E0,-1.711644411E0,3.242173978E0
1.109415153E0,1.131322384E0,-2.343889952E0,-1.683544636E0,3.099682723E0
1.111634416E0,1.080009699E0,-2.140471935E0,-1.648725271E0,2.909696904E0
1.113539384E0,1.012203693E0,-1.844812989E0,-1.612073421E0,2.650787053E0
1.115691569E0,9.676105380E-1,-1.665829539E0,-1.587027907E0,2.495979925E0
1.117558845E0,8.680394888E-1,-1.252273798E0,-1.525941372E0,2.156427437E0
1.119797108E0,7.422012687E-1,-7.886270285E-1,-1.450804949E0,1.810422689E0
1.121799768E0,6.878342628E-1,-5.528330207E-1,-1.409266114E0,1.662760146E0
1.123965492E0,5.723807216E-1,-1.319468915E-1,-1.326799273E0,1.451008609E0
1.126013492E0,4.825835526E-1,2.119702399E-1,-1.249219418E0,1.355864087E0
1.127973762E0,4.153883755E-1,4.532620013E-1,-1.183856845E0,1.333983123E0
1.129813845E0,3.872885704E-1,5.363397002E-1,-1.155757070E0,1.331700835E0
1.132091031E0,3.506366611E-1,6.469063163E-1,-1.109942198E0,1.331692732E0
1.133914807E0,3.280346394E-1,6.872233748E-1,-1.070235968E0,1.313502081E0
1.136148339E0,3.139847219E-1,6.872233748E-1,-1.037860036E0,1.283750687E0
1.138034307E0,3.127630055E-1,6.701191664E-1,-1.022588372E0,1.261969641E0
1.140253262E0,3.103195429E-1,6.255260110E-1,-9.963212013E-1,1.216649886E0
1.142192153E0,3.176499307E-1,5.748242140E-1,-9.712757468E-1,1.172476410E0
1.144466454E0,3.384193480E-1,5.137376785E-1,-9.492846131E-1,1.131191997E0
1.146472883E0,3.530801237E-1,4.831944108E-1,-9.395107627E-1,1.113922298E0
1.148411915E0,3.897320330E-1,4.233296216E-1,-9.193521738E-1,1.084577081E0
1.150300922E0,4.257730842E-1,3.744603992E-1,-9.004153609E-1,1.064072898E0
1.152529992E0,4.514294267E-1,3.494149148E-1,-8.906415105E-1,1.057885443E0
1.154421576E0,4.880813360E-1,2.889392674E-1,-8.655960560E-1,1.034874786E0
1.156586608E0,5.455026627E-1,2.400700450E-1,-8.417723179E-1,1.031400706E0
1.158490345E0,5.650503635E-1,2.150245607E-1,-8.277224302E-1,1.025008242E0
1.160691031E0,6.108652353E-1,1.594358236E-1,-8.014551997E-1,1.020248281E0
1.162594114E0,6.688974500E-1,1.093448773E-1,-7.806857824E-1,1.033852210E0
1.164858954E0,7.275404930E-1,3.726277873E-2,-7.501425147E-1,1.045666044E0
1.166830300E0,7.562511563E-1,1.832595794E-3,-7.373143435E-1,1.056196767E0
1.168831031E0,8.093964458E-1,-8.429940045E-2,-7.018841505E-1,1.074648945E0
1.170697614E0,8.613200188E-1,-1.667662114E-1,-6.756169796E-1,1.107312714E0
1.172948915E0,9.242390990E-1,-2.376265824E-1,-6.444628239E-1,1.151527957E0
1.174788691E0,9.437867999E-1,-2.803871334E-1,-6.316346526E-1,1.169749034E0
1.177004646E0,1.015258074E0,-3.549126983E-1,-6.065891981E-1,1.234772220E0
1.178883037E0,1.083674908E0,-4.404338300E-1,-5.784893632E-1,1.304983987E0
1.181109261E0,1.119105101E0,-4.795292318E-1,-5.619960427E-1,1.340963856E0
1.183062383E0,1.175304770E0,-5.516113043E-1,-5.204572082E-1,1.398746596E0
1.185322877E0,1.240056396E0,-6.145304441E-1,-4.819726646E-1,1.465498270E0
1.187155537E0,1.329242826E0,-7.122688890E-1,-4.508185387E-1,1.573991999E0
1.189328954E0,1.367727280E0,-7.660250068E-1,-4.447098970E-1,1.629490446E0
1.191251768E0,1.508226275E0,-8.851437569E-1,-4.593706727E-1,1.808106021E0
1.193481415E0,1.656666517E0,-1.081842303E0,-5.070181489E-1,2.042545990E0
1.195278576E0,1.817324162E0,-1.320079803E0,-6.151412725E-1,2.328878825E0
1.197540031E0,1.920560360E0,-1.469130874E0,-6.908885837E-1,2.514801116E0
1.199392768E0,2.128254414E0,-1.836260915E0,-8.906415105E-1,2.948654489E0
1.201645723E0,2.386650562E0,-2.266921043E0,-1.160643935E0,3.490290284E0
1.203608768E0,2.507601738E0,-2.496606350E0,-1.319468975E0,3.776520637E0
1.205813723E0,2.805704117E0,-2.998737574E0,-1.669494748E0,4.433014250E0
1.207785223E0,3.103806257E0,-3.555235624E0,-2.062281132E0,5.150370578E0
1.209856184E0,3.401297569E0,-4.150218487E0,-2.463619471E0,5.904452518E0
1.211737807E0,3.524081707E0,-4.437935829E0,-2.667648554E0,6.263447542E0
1.214009607E0,3.610213518E0,-4.871039391E0,-3.078760862E0,6.799958444E0
1.215896614E0,3.483764410E0,-5.059796810E0,-3.465438604E0,7.053185305E0
1.218067607E0,3.195436001E0,-5.004208088E0,-3.788586140E0,7.043173628E0
1.220102992E0,3.025615454E0,-4.877758980E0,-3.921754837E0,6.951765426E0
1.222172954E0,2.628553152E0,-4.463592529E0,-4.106846809E0,6.610532555E0
1.224118268E0,2.259590626E0,-3.897320271E0,-4.170988083E0,6.139380805E0
1.226386877E0,1.922392964E0,-3.263242245E0,-4.100738525E0,5.582150223E0
1.228322191E0,1.836871743E0,-2.933985710E0,-4.028656483E0,5.311538666E0
1.230332184E0,1.621236324E0,-2.272418737E0,-3.795916557E0,4.711823070E0
1.232211537E0,1.598023534E0,-1.676214218E0,-3.473379850E0,4.174654585E0
1.234449607E0,1.555262923E0,-1.397659659E0,-3.297450542E0,3.904545475E0
1.236257653E0,1.665829539E0,-8.607091308E-1,-2.891836166E0,3.446523564E0
1.238506607E0,1.767843962E0,-3.561344445E-1,-2.447126150E0,3.039824076E0
1.240542377E0,1.958433986E0,1.337794960E-1,-1.979814291E0,2.788014573E0
1.242572684E0,2.040289879E0,3.756821156E-1,-1.745852828E0,2.711442778E0
1.244522076E0,2.267531872E0,8.552113175E-1,-1.298088670E0,2.749203772E0
1.246706069E0,2.503325701E0,1.309695125E0,-9.053022861E-1,2.966734419E0
1.248678415E0,2.632218361E0,1.523497939E0,-7.275404930E-1,3.127128817E0
1.250748261E0,2.897333860E0,1.919949412E0,-4.221078753E-1,3.501274668E0
1.252722037E0,3.175888300E0,2.256536245E0,-1.820378453E-1,3.900174368E0
1.254901530E0,3.492927551E0,2.539977789E0,1.160643995E-2,4.318815203E0
1.256889300E0,3.616322279E0,2.656652927E0,9.468411654E-2,4.488268785E0
1.258958761E0,3.906483173E0,2.841134310E0,2.400700450E-1,4.836350750E0
1.260844191E0,4.134335995E0,2.960253000E0,3.640756905E-1,5.097880251E0
1.263064877E0,4.368297577E0,3.035389423E0,4.642575979E-1,5.339583110E0
1.264952653E0,4.456872940E0,3.060434818E0,5.009095073E-1,5.429630560E0
1.267278723E0,4.632802010E0,3.065932751E0,5.736024380E-1,5.584963549E0
1.269121345E0,4.760472775E0,3.037221909E0,6.169738770E-1,5.680446701E0
1.271286030E0,4.817893982E0,3.010954857E0,6.304129362E-1,5.716237577E0
1.273190614E0,4.892419815E0,2.921157598E0,6.359107494E-1,5.733525603E0
1.275439223E0,4.935791016E0,2.774549961E0,6.120869517E-1,5.695156791E0
1.277280306E0,4.957782269E0,2.584570885E0,5.632177591E-1,5.619326109E0
1.279496530E0,4.949841022E0,2.463619471E0,5.345070958E-1,5.554821768E0
1.281380730E0,4.921130180E0,2.171015024E0,4.453207552E-1,5.397141749E0
1.283601415E0,4.852713585E0,1.819767594E0,3.323107064E-1,5.193343205E0
1.285487768E0,4.767803192E0,1.421483397E0,2.009746730E-1,4.979252268E0
1.287768915E0,4.714046955E0,1.205237150E0,1.295034289E-1,4.867402431E0
1.289815107E0,4.605313301E0,7.611380816E-1,-2.015855350E-2,4.667831204E0
1.291775299E0,4.473977089E0,3.023782969E-1,-1.740965992E-1,4.487562061E0
1.293660960E0,4.413501263E0,7.147123665E-2,-2.510656118E-1,4.421214253E0
1.295893876E0,4.291328430E0,-3.909537494E-1,-4.068362415E-1,4.328262961E0
1.297707806E0,4.168544292E0,-8.344419003E-1,-5.589417219E-1,4.287828198E0
1.299951799E0,4.076303959E0,-1.255938888E0,-6.969972253E-1,4.321971956E0
1.301848422E0,4.032321453E0,-1.454470158E0,-7.623597980E-1,4.353882429E0
1.304057376E0,3.969402313E0,-1.833817482E0,-8.741481900E-1,4.459055543E0
1.305962806E0,3.907705069E0,-2.188119411E0,-9.553932548E-1,4.579388795E0
1.308271492E0,3.847229242E0,-2.467284679E0,-1.020144939E0,4.682879694E0
1.310295569E0,3.776368856E0,-2.543642998E0,-1.040303469E0,4.670472433E0
1.312218415E0,3.564398766E0,-2.593733788E0,-1.065348983E0,4.535125354E0
1.314095883E0,3.177721024E0,-2.401311398E0,-1.064738154E0,4.122847883E0
1.316337338E0,2.905275106E0,-2.212553978E0,-1.054353356E0,3.801010333E0
1.318185037E0,2.330451012E0,-1.681101203E0,-1.023199320E0,3.050252452E0
1.320396222E0,1.709811807E0,-1.062905550E0,-9.676105380E-1,2.233717703E0
1.322277576E0,1.114218235E0,-4.404338300E-1,-8.863654733E-1,1.490338212E0
1.324502069E0,8.582656980E-1,-1.380555481E-1,-8.332201838E-1,1.204132558E0
1.326392960E0,3.897320330E-1,4.227187634E-1,-7.104362845E-1,9.139485351E-1
1.328670953E0,1.221730467E-2,8.930850029E-1,-5.619960427E-1,1.055267567E0
1.330675145E0,-2.999348342E-1,1.279762745E0,-3.970624208E-1,1.373103111E0
1.332744838E0,-4.141666293E-1,1.444085479E0,-3.084869385E-1,1.533649588E0
1.334730960E0,-6.218608022E-1,1.719585657E0,-1.142318025E-1,1.832139349E0
1.336898030E0,-7.709119320E-1,1.932166815E0,9.162978828E-2,2.082299168E0
1.338721537E0,-8.411614299E-1,2.024407387E0,1.973094791E-1,2.201069933E0
1.340957415E0,-9.731083512E-1,2.186897516E0,4.111123085E-1,2.428677406E0
1.342832306E0,-1.150259256E0,2.329229116E0,6.163630486E-1,2.669889144E0
1.345063684E0,-1.409266114E0,2.448958874E0,8.063421249E-1,2.938301919E0
1.347051653E0,-1.579086661E0,2.465452194E0,8.943067193E-1,3.061332016E0
1.349277838E0,-1.963931799E0,2.254092693E0,1.053742528E0,3.169910929E0
1.351213915E0,-2.242486238E0,1.690264106E0,1.196074128E0,3.052266469E0
1.353283722E0,-2.530814648E0,9.248499870E-1,1.336573124E0,3.007789553E0
1.355193460E0,-2.612670660E0,4.373795092E-1,1.401935697E0,2.997127376E0
1.357435992E0,-2.748282671E0,-5.760459304E-1,1.532660842E0,3.199052330E0
1.359275845E0,-2.934596539E0,-1.627955914E0,1.681712031E0,3.753698530E0
1.361492799E0,-2.785545588E0,-2.550973177E0,1.731802940E0,4.155221991E0
1.363527684E0,-2.792876005E0,-3.006678820E0,1.773952723E0,4.470702648E0
1.365596722E0,-2.663983345E0,-3.835011959E0,1.824043632E0,5.013108732E0
1.367503653E0,-2.537534237E0,-4.538728714E0,1.841147900E0,5.516245456E0
1.369763876E0,-2.415971994E0,-5.128824711E0,1.838093519E0,5.959895249E0
1.371734068E0,-2.331061840E0,-5.384166241E0,1.820989251E0,6.143215547E0
1.373805261E0,-2.167349815E0,-5.788558960E0,1.767843962E0,6.428848445E0
1.375732383E0,-1.965153456E0,-6.054896355E0,1.705535769E0,6.590330055E0
1.377956068E0,-1.891238809E0,-6.131865501E0,1.665218711E0,6.629442821E0
1.379788960E0,-1.703092337E0,-6.161186695E0,1.569923639E0,6.582203676E0
1.382012376E0,-1.568701982E0,-6.033515930E0,1.481959105E0,6.407834515E0
1.383882153E0,-1.459357023E0,-5.787948132E0,1.373225093E0,6.125015400E0
1.386116684E0,-1.426370382E0,-5.624847412E0,1.320690632E0,5.951274202E0
1.388005191E0,-1.373835921E0,-5.240612984E0,1.207069755E0,5.550537539E0
1.390330838E0,-1.370170712E0,-4.804455280E0,1.071457624E0,5.109616401E0
1.392272229E0,-1.412320495E0,-4.362188816E0,9.431759119E-1,4.681123930E0
1.394276876E0,-1.423926830E0,-4.142888069E0,8.875871897E-1,4.469776302E0
1.396222729E0,-1.475239515E0,-3.734830141E0,7.861835957E-1,4.091866622E0
1.398395068E0,-1.498452425E0,-3.381139040E0,7.128797174E-1,3.766385319E0
1.400382530E0,-1.513724089E0,-3.227200985E0,6.902777553E-1,3.630794705E0
1.402452568E0,-1.503950238E0,-2.968805075E0,6.591235995E-1,3.392655864E0
1.404440114E0,-1.478904724E0,-2.782491207E0,6.511823535E-1,3.217678504E0
1.406557107E0,-1.417818189E0,-2.654820442E0,6.591235995E-1,3.081026439E0
1.408428999E0,-1.382998943E0,-2.605340242E0,6.695083380E-1,3.024685979E0
1.410725068E0,-1.290147424E0,-2.547307968E0,6.969972253E-1,2.939228367E0
1.412697337E0,-1.193019867E0,-2.515542984E0,7.373143435E-1,2.880084261E0
1.414766953E0,-1.141707182E0,-2.508823633E0,7.568620443E-1,2.858414152E0
1.416801991E0,-1.037860036E0,-2.504547596E0,8.057312369E-1,2.828270663E0
1.418919607E0,-9.419541955E-1,-2.508212805E0,8.613200188E-1,2.814299443E0
1.420813191E0,-8.491026759E-1,-2.511266947E0,9.138544202E-1,2.804026914E0
1.422976837E0,-8.069530129E-1,-2.511266947E0,9.401215911E-1,2.800261318E0
1.424870653E0,-7.305948138E-1,-2.505158424E0,9.969320893E-1,2.793467577E0
1.427082453E0,-6.615670323E-1,-2.496606350E0,1.045801282E0,2.786469904E0
1.428955383E0,-6.004805565E-1,-2.474615097E0,1.098946571E0,2.773441967E0
1.431295914E0,-5.778785348E-1,-2.455678225E0,1.123992085E0,2.761821383E0
1.433232530E0,-5.412266254E-1,-2.409252644E0,1.171639562E0,2.733160043E0
1.435301914E0,-5.186246037E-1,-2.350609541E0,1.218065262E0,2.697780509E0
1.437223537E0,-5.070181489E-1,-2.316401005E0,1.242499948E0,2.677048214E0
1.439453991E0,-4.978551865E-1,-2.239432096E0,1.298088670E0,2.635896450E0
1.441291152E0,-4.960225821E-1,-2.145969629E0,1.355509996E0,2.586238852E0
1.443510684E0,-5.143485069E-1,-2.045176744E0,1.415985584E0,2.540141232E0
1.445383114E0,-5.332853794E-1,-1.981646895E0,1.448361516E0,2.511785977E0
1.447615453E0,-6.120869517E-1,-1.821600199E0,1.523497939E0,2.452330257E0
1.449559537E0,-7.458664775E-1,-1.620625496E0,1.613906026E0,2.405709139E0
1.451783376E0,-9.309586287E-1,-1.348790407E0,1.714087844E0,2.371500931E0
1.453831568E0,-1.052520871E0,-1.190576315E0,1.769065738E0,2.377996159E0
1.455791683E0,-1.339016676E0,-8.374962807E-1,1.888795376E0,2.462095378E0
1.457765152E0,-1.659720898E0,-4.392121136E-1,2.007303238E0,2.641372187E0
1.459909260E0,-1.998751044E0,-4.825835302E-2,2.122756720E0,2.916064248E0
1.461820191E0,-2.166128159E0,1.435533315E-1,2.180178165E0,3.076669562E0
1.463966491E0,-2.485610723E0,4.905247986E-1,2.288301229E0,3.413970967E0
1.465835037E0,-2.761721849E0,7.880161405E-1,2.374433279E0,3.726393754E0
1.468071183E0,-2.886949062E0,9.230173826E-1,2.414750338E0,3.875236144E0
1.469945845E0,-3.108082294E0,1.162476540E0,2.483778000E0,4.144958432E0
1.472283876E0,-3.298672438E0,1.362840414E0,2.536923409E0,4.378875909E0
1.474223883E0,-3.466660261E0,1.546710849E0,2.581516504E0,4.590672639E0
1.476229453E0,-3.541185856E0,1.628566742E0,2.602896690E0,4.686928427E0
1.478229106E0,-3.676187038E0,1.781283021E0,2.637716055E0,4.862598722E0
1.480346145E0,-3.797749281E0,1.927279830E0,2.665815830E0,5.024328929E0
1.482170076E0,-3.842342377E0,2.005470514E0,2.680476665E0,5.096122259E0
1.484403145E0,-3.946189404E0,2.142915249E0,2.704911232E0,5.242236292E0
1.486437837E0,-4.032321453E0,2.279138327E0,2.722626448E0,5.372781643E0
1.488467414E0,-4.127616405E0,2.422080755E0,2.745839357E0,5.517547114E0
1.490311537E0,-4.170988083E0,2.493551970E0,2.759889126E0,5.588553569E0
1.492598606E0,-4.265672207E0,2.633440018E0,2.778825998E0,5.731739669E0
1.494554883E0,-4.358523369E0,2.777604342E0,2.794708490E0,5.875560176E0
1.496569876E0,-4.408003807E0,2.853962421E0,2.801428080E0,5.951772707E0
1.498569876E0,-4.516126633E0,2.995683193E0,2.818532228E0,6.108489296E0
1.500686260E0,-4.619362831E0,3.132516861E0,2.838690758E0,6.261736186E0
1.502557922E0,-4.720155716E0,3.258355141E0,2.855184078E0,6.406935642E0
1.504742760E0,-4.769635677E0,3.314554930E0,2.863736153E0,6.475853892E0
1.506558383E0,-4.859433174E0,3.416569233E0,2.886949062E0,6.604658279E0
1.508846491E0,-4.945565224E0,3.502090454E0,2.908329487E0,6.721728448E0
1.510755422E0,-4.977330208E0,3.539353132E0,2.919935942E0,6.769554084E0
1.513059029E0,-5.032918930E0,3.607159376E0,2.945592165E0,6.856995328E0
1.514995568E0,-5.068959713E0,3.668856621E0,2.977357149E0,6.929611610E0
1.517064645E0,-5.097059727E0,3.725056171E0,3.009122133E0,6.993631199E0
1.519006383E0,-5.104390144E0,3.753767014E0,3.028669834E0,7.022706494E0
1.521216799E0,-5.114774704E0,3.813631773E0,3.051882744E0,7.072389685E0
1.523097076E0,-5.105000973E0,3.883270264E0,3.076928139E0,7.113951760E0
1.525273068E0,-5.089729309E0,3.953519821E0,3.101362944E0,7.152210534E0
1.527123768E0,-5.081788063E0,3.993836880E0,3.116023540E0,7.175298297E0
1.529377106E0,-5.046357632E0,4.066529751E0,3.140458107E0,7.201726646E0
1.531230922E0,-4.993823528E0,4.122118473E0,3.165503740E0,7.207672861E0
1.533544760E0,-4.915632725E0,4.156327248E0,3.186883926E0,7.182947197E0
1.535515414E0,-4.867985249E0,4.158770561E0,3.192381859E0,7.154296254E0
1.537585491E0,-4.747033596E0,4.132503510E0,3.190549135E0,7.056310438E0
1.539597076E0,-4.588819504E0,4.053091049E0,3.172223330E0,6.895492176E0
1.541738299E0,-4.379903793E0,3.789197206E0,3.148399591E0,6.591964252E0
1.543725299E0,-4.224133015E0,3.527746677E0,3.134349585E0,6.333438534E0
1.545795683E0,-3.767816782E0,2.756223917E0,3.089756489E0,5.598196919E0
1.547624691E0,-3.238807440E0,1.850310802E0,3.023172140E0,4.801363711E0
1.549899375E0,-2.940094471E0,1.483791709E0,2.978579044E0,4.440464667E0
1.551767499E0,-2.630385637E0,8.155050874E-1,2.878396988E0,3.983609716E0
1.554112952E0,-2.260812283E0,4.025602043E-1,2.731178522E0,3.568285725E0
1.556040268E0,-1.934610248E0,1.240056455E-1,2.532036543E0,3.188934503E0
1.558058068E0,-1.741576791E0,1.588249579E-2,2.417804718E0,2.979785500E0
1.560034614E0,-1.420872569E0,-1.496619880E-1,2.127032757E0,2.562332125E0
1.562176106E0,-1.042136073E0,-2.168571651E-1,1.748296380E0,2.046854870E0
1.563993306E0,-8.753699064E-1,-2.034181207E-1,1.533882618E0,1.777764689E0
1.566234375E0,-5.057964325E-1,-9.346238524E-2,1.048855662E0,1.168188105E0
1.568113191E0,-2.125810981E-1,1.105666086E-1,5.051855445E-1,5.591315879E-1
1.570339298E0,4.703662544E-2,3.921754956E-1,-3.543018550E-2,3.965720131E-1
1.572205229E0,1.453859210E-1,5.546656251E-1,-2.974913716E-1,6.459815306E-1
1.574507106E0,3.536909819E-1,9.022479653E-1,-8.026769161E-1,1.258347700E0
1.576485106E0,5.100724697E-1,1.243721604E0,-1.252273798E0,1.837173650E0
1.578554798E0,6.475171447E-1,1.590082288E0,-1.644449234E0,2.377362702E0
1.580589952E0,6.786713004E-1,1.765400529E0,-1.820378423E0,2.625073592E0
1.582707183E0,7.525860071E-1,2.092213392E0,-2.095267773E0,3.055141505E0
1.584607999E0,7.721336484E-1,2.316401005E0,-2.260812283E0,3.327638226E0
1.586763029E0,7.837401032E-1,2.384207010E0,-2.294409752E0,3.400442284E0
1.588623422E0,7.354817390E-1,2.411085129E0,-2.287690401E0,3.404084643E0
1.590866875E0,6.969972253E-1,2.341446400E0,-2.194227934E0,3.283719324E0
1.592740729E0,6.316346526E-1,2.228436470E0,-2.019520521E0,3.073004161E0
1.595079144E0,5.748242140E-1,2.157576084E0,-1.897958279E0,2.930495361E0
1.597015298E0,4.086688459E-1,1.979814291E0,-1.572978020E0,2.561432159E0
1.599084914E0,2.089159191E-1,1.769065738E0,-1.173472166E0,2.133137682E0
1.600998422E0,4.276056774E-3,1.533271790E0,-7.006624341E-1,1.685784242E0
1.603237260E0,-1.307251602E-1,1.403768301E0,-4.459316432E-1,1.478685072E0
1.605197806E0,-3.836233616E-1,1.118494272E0,7.635815442E-2,1.184916406E0
1.607294606E0,-6.609562039E-1,8.307767510E-1,6.230825782E-1,1.230969136E0
1.609198152E0,-9.181304574E-1,5.583308339E-1,1.172250390E0,1.590241439E0
1.611399298E0,-1.045801282E0,4.373795092E-1,1.436144233E0,1.829620565E0
1.613276306E0,-1.272432327E0,2.455678284E-1,1.933388472E0,2.327526277E0
1.615567067E0,-1.474017859E0,1.404990107E-1,2.370768070E0,2.795176177E0
1.617586268E0,-1.553430319E0,1.411098689E-1,2.568688393E0,3.005198464E0
1.619575798E0,-1.688431501E0,2.309070677E-1,2.905275106E0,3.368195727E0
1.621496537E0,-1.765400529E0,4.361577928E-1,3.180775404E0,3.663905678E0
1.623692452E0,-1.811826348E0,6.878342628E-1,3.390302181E0,3.905122222E0
1.625596845E0,-1.824043632E0,8.332201838E-1,3.471547127E0,4.009118419E0
1.627748606E0,-1.822821856E0,1.146594048E0,3.587611675E0,4.184293842E0
1.629623191E0,-1.801441550E0,1.471574426E0,3.652363300E0,4.330182517E0
1.631853337E0,-1.779450417E0,1.640173197E0,3.670689344E0,4.396654656E0
1.633735537E0,-1.726305127E0,1.982257724E0,3.684739113E0,4.526232142E0
1.636065490E0,-1.647503614E0,2.323120594E0,3.662137032E0,4.639224622E0
1.638012922E0,-1.555262923E0,2.668870211E0,3.618154764E0,4.757389500E0
1.640009452E0,-1.507004619E0,2.835636377E0,3.585778952E0,4.813492212E0
1.642009298E0,-1.396438003E0,3.146566868E0,3.508199215E0,4.915117891E0
1.644125721E0,-1.271210551E0,3.414736748E0,3.414125919E0,4.993261371E0
1.645956191E0,-1.142318010E0,3.644422054E0,3.305391788E0,5.050971928E0
1.648182644E0,-1.076955438E0,3.739106178E0,3.247359753E0,5.068144965E0
1.650103960E0,-9.437867999E-1,3.881437778E0,3.114801884E0,5.065400628E0
1.652287067E0,-8.277224302E-1,3.951687336E0,2.955366135E0,5.003513387E0
1.654204806E0,-7.666358948E-1,3.953519821E0,2.866179705E0,4.942978421E0
1.656454837E0,-6.444628239E-1,3.899152756E0,2.673146248E0,4.771209009E0
1.658413114E0,-5.119050741E-1,3.762929916E0,2.469117403E0,4.529705190E0
1.660426913E0,-3.597996235E-1,3.546072721E0,2.246762276E0,4.213315587E0
1.662388768E0,-2.779437006E-1,3.410460711E0,2.132530689E0,4.031895596E0
1.664544260E0,-1.148426682E-1,3.089145660E0,1.890627980E0,3.623600959E0
1.666362575E0,5.192354694E-2,2.728124142E0,1.646892667E0,3.187101009E0
1.668601413E0,1.350012124E-1,2.538145065E0,1.525330544E0,2.964294008E0
1.670474729E0,3.048217595E-1,2.147191286E0,1.290147424E0,2.523455389E0
1.672706452E0,4.795292318E-1,1.772120118E0,1.066570759E0,2.123188918E0
1.674741798E0,6.438519955E-1,1.414153099E0,8.576548100E-1,1.774808765E0
1.676920144E0,7.226535678E-1,1.238834739E0,7.568620443E-1,1.621659595E0
1.678764922E0,8.741481900E-1,9.022479653E-1,5.644394755E-1,1.377235772E0
1.680928644E0,1.012814522E0,5.827654600E-1,3.811798990E-1,1.229108194E0
1.682854229E0,1.138041973E0,2.767219543E-1,2.083050460E-1,1.189582097E0
1.685081836E0,1.201571941E0,1.258382350E-1,1.282816976E-1,1.214934807E0
1.687008268E0,1.318858027E0,-1.753183305E-1,-2.809980139E-2,1.330756406E0
1.689139721E0,1.427592039E0,-4.685336351E-1,-1.753183305E-1,1.512705958E0
1.691012998E0,1.528995752E0,-7.544185519E-1,-3.188716471E-1,1.734547344E0
1.693245683E0,1.576643229E0,-8.955284357E-1,-3.909537494E-1,1.854890801E0
1.695209806E0,1.662164330E0,-1.175304770E0,-5.283984542E-1,2.103172958E0
1.697414490E0,1.748907208E0,-1.442863703E0,-6.627888083E-1,2.362164493E0
1.699386029E0,1.789835215E0,-1.572978020E0,-7.250970602E-1,2.490689803E0
1.701456875E0,1.863139033E0,-1.831984878E0,-8.515461683E-1,2.748196959E0
1.703363998E0,1.928501606E0,-2.074498415E0,-9.731083512E-1,2.994929378E0
1.705610336E0,1.991420746E0,-2.301740170E0,-1.093448758E0,3.234098728E0
1.707390037E0,2.021353006E0,-2.411695957E0,-1.150259256E0,3.350409187E0
1.709667221E0,2.080606937E0,-2.620001078E0,-1.263880134E0,3.576412150E0
1.711529691E0,2.128254414E0,-2.812423706E0,-1.370170712E0,3.783723263E0
1.713772413E0,2.174680233E0,-2.989574432E0,-1.475850463E0,3.980568300E0
1.715629114E0,2.201558352E0,-3.067154408E0,-1.523497939E0,4.071282514E0
1.717987452E0,2.239432096E0,-3.208875179E0,-1.621847272E0,4.235838123E0
1.719988345E0,2.268753529E0,-3.332880735E0,-1.711033583E0,4.379837039E0
1.721934182E0,2.277305603E0,-3.390302181E0,-1.753183246E0,4.444538354E0
1.723804268E0,2.288912058E0,-3.499036074E0,-1.829541445E0,4.563944977E0
1.726051682E0,2.293188095E0,-3.590054989E0,-1.904677868E0,4.666369493E0
1.727879575E0,2.291355610E0,-3.670689344E0,-1.973705649E0,4.756026155E0
1.730109029E0,2.284636021E0,-3.703065157E0,-2.003027201E0,4.790028316E0
1.732144644E0,2.267531872E0,-3.764762402E0,-2.061059237E0,4.854183959E0
1.734175375E0,2.243708134E0,-3.812409878E0,-2.112371922E0,4.902123050E0
1.736056460E0,2.230879784E0,-3.830735922E0,-2.135584831E0,4.920577698E0
1.738309567E0,2.193006277E0,-3.863722563E0,-2.180788994E0,4.949087715E0
1.740282105E0,2.148413181E0,-3.889379025E0,-2.215608358E0,4.965064833E0
1.742351298E0,2.097711325E0,-3.905872345E0,-2.250427485E0,4.971987072E0
1.744281691E0,2.073887587E0,-3.910759211E0,-2.265088320E0,4.972491571E0
1.746504413E0,2.011579275E0,-3.910759211E0,-2.287690401E0,4.957218591E0
1.748424268E0,1.951103568E0,-3.896098614E0,-2.307848930E0,4.930776432E0
1.750561836E0,1.882686734E0,-3.872885704E0,-2.318844557E0,4.890888784E0
1.752461075E0,1.844812989E0,-3.855170488E0,-2.323120594E0,4.864418131E0
1.754667375E0,1.772730947E0,-3.813020945E0,-2.328618288E0,4.806679401E0
1.756672037E0,1.698205352E0,-3.755599499E0,-2.334727049E0,4.737022209E0
1.758881913E0,1.622458100E0,-3.676187038E0,-2.331672668E0,4.645795827E0
1.760751114E0,1.580919266E0,-3.631593943E0,-2.331061840E0,4.595827411E0
1.762888182E0,1.501506805E0,-3.530801058E0,-2.329839945E0,4.488789699E0
1.764791345E0,1.428202987E0,-3.409238815E0,-2.329839945E0,4.369305121E0
1.767040682E0,1.398270488E0,-3.345708847E0,-2.328007460E0,4.309123667E0
1.768904460E0,1.341460109E0,-3.203377247E0,-2.328007460E0,4.180999849E0
1.771097798E0,1.291980028E0,-3.053715467E0,-2.332283497E0,4.053879236E0
1.772961575E0,1.250441194E0,-2.893668652E0,-2.340224743E0,3.926012391E0
1.775202259E0,1.235169530E0,-2.812423706E0,-2.344500780E0,3.864201700E0
1.777113075E0,1.206458807E0,-2.657874584E0,-2.353052855E0,3.749226306E0
1.779370182E0,1.176526427E0,-2.515542984E0,-2.364659309E0,3.647435344E0
1.781415836E0,1.158200502E0,-2.382985353E0,-2.378709316E0,3.560660839E0
1.783376798E0,1.149037480E0,-2.331061840E0,-2.382374525E0,3.525598504E0
1.785376182E0,1.141096234E0,-2.243097067E0,-2.393369913E0,3.473010885E0
1.787493375E0,1.128268123E0,-2.155743361E0,-2.397035122E0,3.415552045E0
1.789316152E0,1.120937705E0,-2.114815474E0,-2.394591808E0,3.385707571E0
1.791549567E0,1.103833556E0,-2.030516148E0,-2.395202637E0,3.328429061E0
1.793430998E0,1.091616154E0,-1.952936172E0,-2.390926600E0,3.274464158E0
1.795652836E0,1.070846796E0,-1.884519339E0,-2.375044107E0,3.215425401E0
1.797647806E0,1.058018565E0,-1.858862996E0,-2.363437653E0,3.187571562E0
1.799864490E0,1.017090678E0,-1.814269781E0,-2.330451012E0,3.123627731E0
1.801866191E0,9.816604257E-1,-1.773952723E0,-2.284025192E0,3.054068849E0
1.803808874E0,9.468411207E-1,-1.761124492E0,-2.259590626E0,3.017253284E0
1.805686537E0,9.071348906E-1,-1.736689925E0,-2.197893143E0,2.944438804E0
1.807924413E0,8.478809595E-1,-1.721418262E0,-2.124589205E0,2.862876568E0
1.809740768E0,7.794640660E-1,-1.693929315E0,-2.040289879E0,2.764008600E0
1.811979721E0,7.452555895E-1,-1.673770785E0,-1.992642403E0,2.706942608E0
1.813855421E0,6.493497491E-1,-1.607797384E0,-1.893071413E0,2.567174887E0
1.816082990E0,5.412266254E-1,-1.453248382E0,-1.770898342E0,2.353919722E0
1.818036383E0,3.604104817E-1,-1.159422278E0,-1.613906026E0,2.019615903E0
1.820249182E0,2.522873580E-1,-9.321803451E-1,-1.508837104E0,1.791423599E0
1.822252759E0,-7.452555746E-2,-2.785545588E-1,-1.229671717E0,1.263027803E0
1.824321605E0,-4.404338300E-1,5.650503635E-1,-8.491026759E-1,1.110963198E0
1.826248268E0,-8.173376918E-1,1.009149432E0,-6.377432942E-1,1.446768810E0
1.828473144E0,-9.908234477E-1,1.860695481E0,-1.979203373E-1,2.117331159E0
1.830278306E0,-1.351233959E0,2.643824816E0,2.223549485E-1,2.977429192E0
1.832529913E0,-1.672549009E0,3.382360935E0,6.072000265E-1,3.821842168E0
1.834413306E0,-1.839315295E0,3.728721380E0,7.861835957E-1,4.231374308E0
1.836634413E0,-2.128865480E0,4.382347107E0,1.100168347E0,4.994737710E0
1.838659306E0,-2.380541801E0,4.939456463E0,1.342681766E0,5.645175262E0
1.840847182E0,-2.594344616E0,5.373170853E0,1.514945865E0,6.156025501E0
1.842783913E0,-2.654209375E0,5.538715363E0,1.580308437E0,6.341890099E0
1.844854336E0,-2.769663095E0,5.746409416E0,1.667662144E0,6.593432480E0
1.846862691E0,-2.776382446E0,5.781228542E0,1.711644411E0,6.637818131E0
1.849007413E0,-2.753780603E0,5.670661926E0,1.725694299E0,6.535880592E0
1.850826460E0,-2.729956865E0,5.578421593E0,1.728137732E0,6.446542637E0
1.853064297E0,-2.657263756E0,5.355455399E0,1.734246373E0,6.224914753E0
1.854935345E0,-2.564412355E0,5.074457645E0,1.739744186E0,5.945842325E0
1.857168874E0,-2.512488842E0,4.921130180E0,1.745852828E0,5.794663453E0
1.859064652E0,-2.389093876E0,4.575991631E0,1.748296380E0,5.450138455E0
1.861336797E0,-2.268142700E0,4.216802597E0,1.758070230E0,5.100657446E0
1.863307951E0,-2.142304420E0,3.840509892E0,1.769065738E0,4.740103168E0
1.865378567E0,-2.079996109E0,3.649919748E0,1.775174379E0,4.560651495E0
1.867357037E0,-1.951103568E0,3.283400774E0,1.789224267E0,4.217682925E0
1.869529567E0,-1.820989251E0,2.929098845E0,1.800830722E0,3.890837080E0
1.871364268E0,-1.693318486E0,2.585181713E0,1.803885102E0,3.578336687E0
1.873585682E0,-1.623068929E0,2.426967621E0,1.806328535E0,3.433270650E0
1.875538691E0,-1.497841597E0,2.117869854E0,1.809382915E0,3.162715400E0
1.877689797E0,-1.362229466E0,1.841147900E0,1.806328535E0,2.916902035E0
1.879562652E0,-1.229060888E0,1.702481389E0,1.798998117E0,2.765036668E0
1.881902490E0,-1.160643935E0,1.448972344E0,1.781893969E0,2.573278320E0
1.883920229E0,-1.034805775E0,1.194241524E0,1.762957096E0,2.367499426E0
1.885847720E0,-9.028588533E-1,9.358455539E-1,1.728748679E0,2.163222828E0
1.887738652E0,-8.191702962E-1,8.203920126E-1,1.699427128E0,2.057215495E0
1.889964336E0,-6.444628239E-1,5.674937963E-1,1.637729764E0,1.849199913E0
1.891946075E0,-4.581489265E-1,3.176499307E-1,1.561371565E0,1.657915282E0
1.894020913E0,-2.376265824E-1,1.075122803E-1,1.458746195E0,1.481879126E0
1.896055720E0,-1.240056455E-1,1.649336144E-2,1.401324868E0,1.406897586E0
1.898125336E0,1.404990107E-1,-1.350012124E-1,1.268767118E0,1.283641422E0
1.900011191E0,4.557054639E-1,-3.017674387E-1,1.110553026E0,1.237763742E0
1.902293913E0,8.216137290E-1,-4.599815309E-1,9.456194043E-1,1.334476746E0
1.904266451E0,1.017701507E0,-5.198463202E-1,8.570439219E-1,1.428454003E0
1.906335951E0,1.461189628E0,-5.461135507E-1,6.695083380E-1,1.697514817E0
1.908269844E0,1.947438359E0,-5.002986193E-1,4.618141353E-1,2.063028639E0
1.910489913E0,2.184454203E0,-4.813618064E-1,3.555235863E-1,2.264938492E0
1.912413537E0,2.679255009E0,-4.593706727E-1,1.099557430E-1,2.720573300E0
1.914547412E0,3.142901659E0,-5.131267905E-1,-1.618792862E-1,3.188625855E0
1.916540229E0,3.521027327E0,-6.249151230E-1,-4.612032473E-1,3.605670642E0
1.918652220E0,3.692680359E0,-6.817256212E-1,-6.212499738E-1,3.806125272E0
1.920580268E0,3.990171671E0,-7.971791625E-1,-9.462302923E-1,4.177596958E0
1.922865259E0,4.222300529E0,-9.816604257E-1,-1.269988894E0,4.517117526E0
1.924731960E0,4.405560017E0,-1.332907915E0,-1.581530094E0,4.866912780E0
1.926879836E0,4.458705425E0,-1.554652095E0,-1.732413888E0,5.029737079E0
1.928774729E0,4.626693249E0,-2.065946341E0,-2.028683424E0,5.458019891E0
1.931032412E0,4.750088215E0,-2.643824816E0,-2.318844557E0,5.910176629E0
1.932980768E0,4.832554817E0,-2.957198620E0,-2.458121777E0,6.175837790E0
1.935089412E0,4.910134792E0,-3.586389780E0,-2.728124142E0,6.664403699E0
1.936961921E0,4.971832275E0,-4.150829315E0,-2.989574432E0,7.133446254E0
1.939193643E0,5.008484364E0,-4.622417450E0,-3.247970581E0,7.549898781E0
1.941085344E0,5.011538506E0,-4.805676937E0,-3.378695726E0,7.721763648E0
1.943360951E0,4.973053932E0,-5.090340137E0,-3.626096010E0,7.986951884E0
1.945382306E0,4.900361061E0,-5.240612984E0,-3.859446526E0,8.146955901E0
1.947367797E0,4.844772339E0,-5.280319214E0,-4.064086437E0,8.238348656E0
1.949243768E0,4.778187752E0,-5.269323826E0,-4.152050972E0,8.236284299E0
1.951484451E0,4.709160328E0,-5.188078403E0,-4.290106773E0,8.215677978E0
1.953366306E0,4.582100391E0,-5.072014332E0,-4.384180069E0,8.120468475E0
1.955541028E0,4.542394161E0,-4.941899776E0,-4.423886299E0,8.039060151E0
1.957438498E0,4.448931694E0,-4.636466980E0,-4.444655418E0,7.813115964E0
1.959644720E0,4.400062561E0,-4.273002625E0,-4.410447121E0,7.554544710E0
1.961574652E0,4.363410473E0,-3.852116346E0,-4.337143421E0,7.258716440E0
1.963856758E0,4.349360466E0,-3.634648323E0,-4.285830498E0,7.106050095E0
1.965791268E0,4.345084667E0,-3.167947054E0,-4.172209740E0,6.806098986E0
1.967801720E0,4.386012554E0,-2.676811457E0,-4.027434349E0,6.528602694E0
1.969675075E0,4.414722919E0,-2.447736979E0,-3.947411299E0,6.408061387E0
1.971918720E0,4.517348289E0,-2.002416372E0,-3.778201580E0,6.220202093E0
1.973735537E0,4.676784515E0,-1.572978020E0,-3.585778952E0,6.099539650E0
1.975974681E0,4.860654831E0,-1.195463300E0,-3.378695726E0,6.039096182E0
1.978010066E0,4.979162693E0,-1.028086185E0,-3.266296387E0,6.042988864E0
1.980040143E0,5.207626343E0,-7.367035151E-1,-3.036000252E0,6.072841322E0
1.981869498E0,5.453194141E0,-5.009095073E-1,-2.800817251E0,6.150838476E0
1.984171605E0,5.691431522E0,-3.268128932E-1,-2.563801527E0,6.250782168E0
1.986143181E0,5.803219795E0,-2.528982162E-1,-2.446515322E0,6.302916366E0
1.988195143E0,6.012746811E0,-1.392772794E-1,-2.216830015E0,6.409903095E0
1.990229912E0,6.080552578E0,1.038470957E-2,-1.963931799E0,6.389855680E0
1.992346181E0,6.012135506E0,1.557706445E-1,-1.822211027E0,6.284145993E0
1.994167883E0,5.561316967E0,6.743952036E-1,-1.485624313E0,5.795699690E0
1.996403874E0,4.634023666E0,1.539380431E0,-1.102611780E0,5.005958469E0
1.998298191E0,3.547294378E0,2.414750338E0,-7.403686643E-1,4.354590952E0
2.000509374E0,3.006067753E0,2.776993513E0,-5.711590052E-1,4.132113130E0
2.002378844E0,2.057394028E0,3.280957222E0,-2.638937831E-1,3.881647898E0
2.004722951E0,1.342070937E0,3.467271090E0,1.343903504E-2,3.717970389E0
2.006574191E0,8.735373020E-1,3.384193420E0,2.724458873E-1,3.505718084E0
2.008729412E0,7.257078886E-1,3.271794319E0,3.982841372E-1,3.374895593E0
2.010630075E0,5.222898126E-1,2.935207605E0,6.389650702E-1,3.049017333E0
2.012883258E0,4.105014503E-1,2.530814648E0,8.600982428E-1,2.704311966E0
2.014707191E0,3.701843321E-1,2.319455385E0,9.578366876E-1,2.536604195E0
2.016940643E0,3.194825351E-1,1.902845263E0,1.135598540E0,2.238855340E0
2.018804037E0,2.602286041E-1,1.471574426E0,1.295034289E0,1.977464039E0
2.021045220E0,1.869247705E-1,1.050688267E0,1.436144233E0,1.789244802E0
2.022991037E0,1.264491081E-1,8.698720932E-1,1.497230768E0,1.736193195E0
2.025213720E0,-1.404990070E-2,5.259549618E-1,1.600466967E0,1.684731591E0
2.027155844E0,-2.138028294E-1,2.675589919E-1,1.682933807E0,1.717429959E0
2.029255681E0,-4.410447180E-1,1.099557430E-1,1.775174379E0,1.832445029E0
2.031144152E0,-5.815436840E-1,6.230825558E-2,1.820989251E0,1.912610056E0
2.033407297E0,-8.662069440E-1,3.543018550E-2,1.917505980E0,2.104376143E0
2.035395143E0,-1.222952247E0,-1.527163107E-2,1.987755537E0,2.333884636E0
2.037464220E0,-1.560149789E0,-3.121521473E-1,2.000583649E0,2.556137958E0
2.039336421E0,-1.737911582E0,-5.491678715E-1,1.988977194E0,2.697768021E0
2.041568835E0,-1.918727756E0,-1.289536476E0,1.891238809E0,2.986838589E0
2.043460075E0,-1.950492740E0,-2.249816656E0,1.693318486E0,3.425408649E0
2.045782220E0,-1.879021525E0,-3.176499367E0,1.431868076E0,3.958676080E0
2.047804989E0,-1.709811807E0,-3.569285631E0,1.276097536E0,4.158326737E0
2.049727835E0,-1.600466967E0,-4.392121315E0,9.584475756E-1,4.771880752E0
2.051587767E0,-1.435533285E0,-4.930904388E0,6.579018831E-1,5.177587159E0
2.053844720E0,-1.356120825E0,-5.085453033E0,5.314527750E-1,5.289928005E0
2.055636267E0,-1.207680583E0,-5.211902142E0,3.139847219E-1,5.359197956E0
2.057899373E0,-1.057407737E0,-5.124548435E0,1.398881376E-1,5.234374507E0
2.059745844E0,-1.015868902E0,-5.009095192E0,7.269296050E-2,5.111585716E0
2.062003104E0,-8.655960560E-1,-4.605924129E0,-5.314527452E-2,4.686855880E0
2.063849306E0,-7.751879692E-1,-4.038430214E0,-1.753183305E-1,4.115892552E0
2.066168412E0,-6.316346526E-1,-3.350595951E0,-2.712241709E-1,3.420382744E0
2.068101421E0,-5.913175344E-1,-2.988352776E0,-3.200933933E-1,3.063065216E0
2.070241450E0,-4.471533597E-1,-2.277916431E0,-4.202753007E-1,2.359127111E0
2.072141960E0,-3.530801237E-1,-1.606575608E0,-5.076290369E-1,1.721463911E0
2.074392912E0,-2.284636050E-1,-1.014036298E0,-5.907067060E-1,1.195575027E0
2.076231421E0,-1.649336219E-1,-7.605272532E-1,-6.304129362E-1,1.001511494E0
2.078449489E0,-2.687807009E-2,-3.347541690E-1,-6.908885837E-1,7.681860578E-1
2.080298537E0,1.215621829E-1,-1.588249579E-2,-7.348709106E-1,7.450267601E-1
2.082553873E0,2.357939780E-1,1.960877478E-1,-7.782423496E-1,8.364869154E-1
2.084413614E0,3.090978265E-1,2.620611787E-1,-7.886270285E-1,8.866510688E-1
2.086766835E0,4.105014503E-1,3.439171314E-1,-8.045095205E-1,9.664502070E-1
2.088634614E0,5.198463202E-1,3.469714522E-1,-8.106181622E-1,1.023587412E0
2.090771720E0,5.406157374E-1,3.255911767E-1,-8.063421249E-1,1.023944633E0
2.092707690E0,6.065891981E-1,2.577851415E-1,-7.812966704E-1,1.022168343E0
2.094923335E0,6.163630486E-1,1.551597714E-1,-7.415903807E-1,9.766955795E-1
2.096728537E0,6.194173694E-1,2.626720630E-2,-6.719517708E-1,9.142685742E-1
2.098979373E0,6.090326309E-1,-4.398229718E-2,-6.316346526E-1,8.785314578E-1
2.100802267E0,5.949827433E-1,-1.734857261E-1,-5.412266254E-1,8.228171255E-1
2.103083104E0,5.754350424E-1,-2.883284092E-1,-4.367686510E-1,7.778339245E-1
2.105027883E0,5.485569835E-1,-3.781255782E-1,-3.188716471E-1,7.386290302E-1
2.107250412E0,5.479460955E-1,-4.178318381E-1,-2.632829249E-1,7.376627055E-1
2.109234921E0,5.393940210E-1,-4.819726646E-1,-1.368338168E-1,7.361841161E-1
2.111257835E0,5.393940210E-1,-5.277875662E-1,-1.160643995E-2,7.547452116E-1
2.113114344E0,5.283984542E-1,-5.479460955E-1,4.703662544E-2,7.626678793E-1
2.115374066E0,5.204572082E-1,-5.803219676E-1,1.631010175E-1,7.963989161E-1
2.117361335E0,5.002986193E-1,-6.114761233E-1,2.791654170E-1,8.379350141E-1
2.119430681E0,4.831944108E-1,-6.371324658E-1,3.805690408E-1,8.855774458E-1
2.121299883E0,4.740314186E-1,-6.475171447E-1,4.288274050E-1,9.098775641E-1
2.123535450E0,4.538728893E-1,-6.566801667E-1,5.210680366E-1,9.532792559E-1
2.125532383E0,4.294382632E-1,-6.585127115E-1,5.968153477E-1,9.870383844E-1
2.127748373E0,3.982841372E-1,-6.530149579E-1,6.609562039E-1,1.010901525E0
2.129623767E0,3.824016452E-1,-6.493497491E-1,6.902777553E-1,1.021943978E0
2.131695642E0,3.524692357E-1,-6.291912198E-1,7.342600226E-1,1.029200629E0
2.133575037E0,3.237585723E-1,-6.120869517E-1,7.690793276E-1,1.034868621E0
2.135813527E0,2.999348342E-1,-6.029239893E-1,7.867944241E-1,1.035627205E0
2.137602614E0,2.748893499E-1,-5.754350424E-1,8.038986921E-1,1.026129987E0
2.139870565E0,2.290744632E-1,-5.448917747E-1,8.258898258E-1,1.015616148E0
2.141905681E0,1.826487035E-1,-5.161811113E-1,8.442157507E-1,1.006232439E0
2.143974335E0,1.594358236E-1,-4.996877611E-1,8.503243923E-1,9.990791823E-1
2.145879267E0,8.429940045E-2,-4.703662395E-1,8.643743396E-1,9.876708901E-1
2.148140373E0,-1.649336144E-2,-3.927863538E-1,8.827002645E-1,9.662882115E-1
2.150064267E0,-9.590584040E-2,-3.262020350E-1,8.961393237E-1,9.584734662E-1
2.152181412E0,-3.127630055E-1,-1.331686229E-1,9.340129495E-1,9.939490779E-1
2.154050575E0,-6.108652353E-1,1.026253626E-1,9.877691269E-1,1.165922874E0
2.156332565E0,-9.779952765E-1,3.671300113E-1,1.047023058E0,1.479025520E0
2.158117037E0,-1.166752577E0,5.039638281E-1,1.074512005E0,1.664291791E0
2.160388488E0,-1.540602207E0,7.800748944E-1,1.134376764E0,2.066103251E0
2.162277267E0,-1.881464958E0,1.023199320E0,1.187522054E0,2.448888700E0
2.164491527E0,-2.170404196E0,1.227228284E0,1.221119642E0,2.776306326E0
2.166349306E0,-2.284025192E0,1.312749386E0,1.235780358E0,2.909851392E0
2.168702796E0,-2.475836754E0,1.452026725E0,1.257771492E0,3.133710001E0
2.170539152E0,-2.605951071E0,1.558317184E0,1.262658477E0,3.288409929E0
2.172707027E0,-2.700635195E0,1.646892667E0,1.268156290E0,3.407918175E0
2.174577575E0,-2.734843731E0,1.689042449E0,1.268767118E0,3.455720566E0
2.176857642E0,-2.770273924E0,1.766622305E0,1.268767118E0,3.522093409E0
2.178642152E0,-2.792264938E0,1.838093519E0,1.277930140E0,3.578887637E0
2.180913488E0,-2.791043282E0,1.877799749E0,1.278540969E0,3.598711090E0
2.182739883E0,-2.783712864E0,1.960877419E0,1.279762745E0,3.637566528E0
2.185017065E0,-2.761721849E0,2.044565916E0,1.280373573E0,3.666976117E0
2.186837844E0,-2.736065388E0,2.125200272E0,1.280373573E0,3.693492451E0
2.189184027E0,-2.723237276E0,2.162462950E0,1.276708364E0,3.704355749E0
2.191070267E0,-2.696359158E0,2.245540619E0,1.276097536E0,3.733795696E0
2.193225065E0,-2.670091867E0,2.317622662E0,1.276708364E0,3.759088936E0
2.195115729E0,-2.638326883E0,2.396424294E0,1.276097536E0,3.785768490E0
2.197376681E0,-2.627331495E0,2.439184904E0,1.278540969E0,3.806200309E0
2.199195806E0,-2.611449003E0,2.532036543E0,1.280373573E0,3.856193906E0
2.201435719E0,-2.594955444E0,2.632829189E0,1.282206178E0,3.912752992E0
2.203280652E0,-2.589457750E0,2.686585426E0,1.284649611E0,3.946309328E0
2.205540296E0,-2.574796915E0,2.803260565E0,1.291980028E0,4.019584722E0
2.207475690E0,-2.573575258E0,2.921768427E0,1.302364707E0,4.105627136E0
2.209753219E0,-2.579684019E0,3.045163155E0,1.324966669E0,4.205154569E0
2.211635383E0,-2.585181713E0,3.104417086E0,1.338405728E0,4.255807776E0
2.213698104E0,-2.587625265E0,3.228422880E0,1.372614264E0,4.359195881E0
2.215503344E0,-2.593733788E0,3.346930742E0,1.418429136E0,4.465572927E0
2.217815104E0,-2.593122959E0,3.468492746E0,1.470963478E0,4.573670535E0
2.219587537E0,-2.595566511E0,3.529579401E0,1.500895858E0,4.631153705E0
2.221871757E0,-2.595566511E0,3.643811226E0,1.568091035E0,4.740594399E0
2.223906565E0,-2.598009825E0,3.752545118E0,1.641394973E0,4.850301781E0
2.225936027E0,-2.601675034E0,3.802025318E0,1.679268599E0,4.903473516E0
2.227709652E0,-2.607172966E0,3.901596308E0,1.758070230E0,5.011049347E0
2.230067565E0,-2.614503145E0,3.994447947E0,1.836260915E0,5.114987316E0
2.231960306E0,-2.630385637E0,4.086688519E0,1.912008166E0,5.222616861E0
2.234108065E0,-2.643213987E0,4.133725166E0,1.950492740E0,5.280027070E0
2.235973767E0,-2.664594173E0,4.230241776E0,2.016466141E0,5.390838829E0
2.238258834E0,-2.692083120E0,4.326758385E0,2.083050489E0,5.505201993E0
2.240066267E0,-2.703689575E0,4.371351719E0,2.110539436E0,5.556350410E0
2.242314450E0,-2.725069761E0,4.456872940E0,2.163073778E0,5.654079039E0
2.244158306E0,-2.748282671E0,4.536896229E0,2.210110426E0,5.746396534E0
2.246417988E0,-2.766608715E0,4.615697861E0,2.247984171E0,5.831999945E0
2.248276537E0,-2.776993513E0,4.650516987E0,2.268142700E0,5.872262982E0
2.250630450E0,-2.817921400E0,4.679838657E0,2.313346624E0,5.932380928E0
2.252525498E0,-2.941926956E0,4.572937012E0,2.374433279E0,5.933348172E0
2.254636219E0,-3.174055815E0,4.230241776E0,2.445904493E0,5.826836585E0
2.256502267E0,-3.304780960E0,3.985895634E0,2.473393440E0,5.738171861E0
2.258788796E0,-3.571118116E0,3.384193420E0,2.485610723E0,5.512160228E0
2.260604998E0,-3.865555286E0,2.634661913E0,2.434298038E0,5.273496753E0
2.262845642E0,-4.152050972E0,1.739133358E0,2.320066214E0,5.064268886E0
2.264667613E0,-4.292550087E0,1.248608589E0,2.228436470E0,4.995091467E0
2.266950065E0,-4.530787468E0,2.602286041E-1,1.984701157E0,4.953260814E0
2.268800113E0,-4.710381985E0,-7.458664775E-1,1.660942554E0,5.050024298E0
2.271118027E0,-4.813618183E0,-1.701259732E0,1.263269305E0,5.259377722E0
2.273075421E0,-4.833776474E0,-2.136195660E0,1.045801282E0,5.387246720E0
2.275126103E0,-4.833776474E0,-2.945592165E0,5.943718553E-1,5.691676915E0
2.276961383E0,-4.780020714E0,-3.696345568E0,1.612684280E-1,6.044632006E0
2.279243603E0,-4.759861946E0,-4.018882275E0,-3.054326214E-2,6.229657565E0
2.281047267E0,-4.599815369E0,-4.597982883E0,-3.628539443E-1,6.513939745E0
2.283299488E0,-4.422053337E0,-5.052466393E0,-6.261368990E-1,6.743442725E0
2.285124613E0,-4.117231846E0,-5.392718315E0,-8.100073338E-1,6.832943786E0
2.287403065E0,-3.968180656E0,-5.503895760E0,-8.698720932E-1,6.840760463E0
2.289230690E0,-3.541796684E0,-5.674327374E0,-9.242390990E-1,6.752520478E0
2.291615219E0,-3.109915018E0,-5.797111034E0,-9.132435322E-1,6.641692669E0
2.293514152E0,-2.587014198E0,-5.861862659E0,-8.588765264E-1,6.464653524E0
2.295567565E0,-2.318844557E0,-5.852699757E0,-8.185594082E-1,6.348320567E0
2.297407383E0,-1.747074604E0,-5.706703186E0,-7.195992470E-1,6.011368729E0
2.299685565E0,-1.217454433E0,-5.340183735E0,-6.023131609E-1,5.510221299E0
2.301480960E0,-9.908234477E-1,-5.084231377E0,-5.424483418E-1,5.208204105E0
2.303742065E0,-5.320636034E-1,-4.446487904E0,-4.123340547E-1,4.497150846E0
2.305583036E0,-1.429424733E-1,-3.652363300E0,-2.492330223E-1,3.663646725E0
2.307846411E0,4.886921868E-2,-3.215594769E0,-1.502728462E-1,3.219475088E0
2.309667690E0,3.292563558E-1,-2.331672668E0,7.330382615E-2,2.355945804E0
2.312014526E0,5.448917747E-1,-1.455691934E0,3.347541690E-1,1.589970567E0
2.313960690E0,6.359107494E-1,-6.273586154E-1,6.065891981E-1,1.079773943E0
2.316088334E0,6.517932415E-1,-2.425135076E-1,7.428121567E-1,1.017554486E0
2.317971190E0,6.035348773E-1,4.819726646E-1,9.798278809E-1,1.247643649E0
2.320240680E0,4.911356568E-1,1.137431145E0,1.174693823E0,1.707298867E0
2.322079844E0,3.433062732E-1,1.729970336E0,1.320690632E0,2.203379292E0
2.324298026E0,2.504547536E-1,1.991420746E0,1.383609772E0,2.437798222E0
2.326141729E0,7.147123665E-2,2.456289053E0,1.480126500E0,2.868664934E0
2.328401642E0,-1.044579595E-1,2.869234085E0,1.550986886E0,3.263276884E0
2.330313383E0,-2.602286041E-1,3.244916201E0,1.604743004E0,3.629380138E0
2.332613680E0,-3.329215646E-1,3.421456337E0,1.621847272E0,3.800998396E0
2.334431267E0,-4.483750761E-1,3.753767014E0,1.645671010E0,4.123110485E0
2.336619372E0,-5.308418870E-1,4.061032295E0,1.659109950E0,4.418871150E0
2.338471344E0,-5.662720799E-1,4.197865963E0,1.659109950E0,4.549218454E0
2.340771103E0,-6.126978397E-1,4.449542522E0,1.646892667E0,4.783940087E0
2.342550344E0,-6.432411075E-1,4.652960777E0,1.611462474E0,4.965945471E0
2.344827680E0,-6.579018831E-1,4.809341908E0,1.556484699E0,5.097572863E0
2.346770075E0,-6.676757336E-1,4.868596077E0,1.518000126E0,5.143281348E0
2.348931872E0,-6.737843752E-1,4.938845634E0,1.433700681E0,5.186682873E0
2.350753806E0,-6.866125464E-1,4.938845634E0,1.335962296E0,5.162211565E0
2.353098757E0,-6.853908300E-1,4.872871876E0,1.233336926E0,5.073042566E0
2.355024113E0,-6.847799420E-1,4.813007355E0,1.177137375E0,5.001961192E0
2.357139411E0,-6.805039048E-1,4.631580353E0,1.066570759E0,4.801270177E0
2.359010152E0,-6.725626588E-1,4.379292965E0,9.529497623E-1,4.531959913E0
2.361290218E0,-6.499606371E-1,4.094018936E0,8.472700715E-1,4.230993554E0
2.363091306E0,-6.346889734E-1,3.941302538E0,7.947356701E-1,4.070417739E0
2.365346257E0,-6.010913849E-1,3.619376659E0,6.957755089E-1,3.734340881E0
2.367189767E0,-5.583308339E-1,3.282789946E0,6.072000265E-1,3.384838995E0
2.369449834E0,-5.326744914E-1,3.114191055E0,5.607742667E-1,3.208799748E0
2.371288690E0,-4.764748812E-1,2.767219543E0,4.758640230E-1,2.847978034E0
2.373660872E0,-4.123340547E-1,2.419637203E0,3.964515328E-1,2.486330104E0
2.375557575E0,-3.353650272E-1,2.072054863E0,3.225368559E-1,2.123655123E0
2.377606526E0,-2.907718420E-1,1.891238809E0,2.828305960E-1,1.934250667E0
2.379450613E0,-2.083050460E-1,1.543045640E0,2.119702399E-1,1.571404538E0
2.381723949E0,-1.136209369E-1,1.204015374E0,1.423316002E-1,1.217711387E0
2.383492806E0,-6.841690838E-2,1.041525245E0,1.075122803E-1,1.049292428E0
2.385780757E0,3.543018550E-2,7.220427394E-1,4.153883830E-2,7.241039225E-1
2.387591921E0,1.435533315E-1,4.135557711E-1,-1.893682219E-2,4.381718134E-1
2.389884065E0,2.467895597E-1,1.099557430E-1,-8.124507964E-2,2.821278348E-1
2.391711690E0,3.097086847E-1,-3.237585723E-2,-1.099557430E-1,3.302392026E-1
2.394050295E0,4.227187634E-1,-3.121521473E-1,-1.679879427E-1,5.516793134E-1
2.396021565E0,5.436700583E-1,-5.760459304E-1,-2.223549485E-1,8.227075843E-1
2.398090757E0,6.603453159E-1,-8.332201838E-1,-2.779437006E-1,1.098892402E0
2.399956075E0,7.177666426E-1,-9.547823668E-1,-3.023782969E-1,1.232165149E0
2.402240180E0,8.222246170E-1,-1.200350165E0,-3.506366611E-1,1.496609471E0
2.404024421E0,9.236282706E-1,-1.436755061E0,-3.995058835E-1,1.754126346E0
2.406296026E0,9.737191796E-1,-1.550375938E0,-4.233296216E-1,1.879096208E0
2.408133152E0,1.068403363E0,-1.777617812E0,-4.642575979E-1,2.125310789E0
2.410399141E0,1.157589674E0,-1.989588141E0,-5.070181489E-1,2.357019777E0
2.412207883E0,1.234558702E0,-2.191173553E0,-5.467243791E-1,2.573768497E0
2.414610603E0,1.310916781E0,-2.372600555E0,-5.809328556E-1,2.772222788E0
2.416383767E0,1.341460109E0,-2.456289053E0,-6.017022729E-1,2.862676503E0
2.418616564E0,1.406822681E0,-2.606561899E0,-6.444628239E-1,3.031278166E0
2.420467883E0,1.459357023E0,-2.738508940E0,-6.902777553E-1,3.178936538E0
2.422768795E0,1.483791709E0,-2.791043282E0,-7.134906054E-1,3.240467448E0
2.424533383E0,1.524108768E0,-2.883894920E0,-7.641924024E-1,3.350186185E0
2.426825334E0,1.557706356E0,-2.962085485E0,-8.191702962E-1,3.445495536E0
2.428648498E0,1.585195303E0,-3.023172140E0,-8.759807348E-1,3.524167446E0
2.430928834E0,1.595579982E0,-3.050050259E0,-9.053022861E-1,3.559249119E0
2.432746690E0,1.613295078E0,-3.094643354E0,-9.651671052E-1,3.620923369E0
2.435094987E0,1.629788518E0,-3.129462719E0,-1.023810148E0,3.673953557E0
2.437041959E0,1.635897160E0,-3.150232077E0,-1.082453251E0,3.711041187E0
2.439100334E0,1.633453608E0,-3.155729771E0,-1.109942198E0,3.722737267E0
2.440972767E0,1.627344966E0,-3.161227703E0,-1.165530920E0,3.741667350E0
2.443216757E0,1.616960287E0,-3.158173323E0,-1.216843605E0,3.750910245E0
2.445018652E0,1.609629869E0,-3.150232077E0,-1.240056396E0,3.748681144E0
2.447272564E0,1.585806131E0,-3.131906033E0,-1.290147424E0,3.740066424E0
2.449100767E0,1.560760736E0,-3.100751877E0,-1.328021049E0,3.716756138E0
2.451376603E0,1.524108768E0,-3.065321684E0,-1.359175205E0,3.683267815E0
2.453188690E0,1.503339410E0,-3.048217535E0,-1.372614264E0,3.665478064E0
2.455588987E0,1.458135366E0,-3.012176514E0,-1.403768301E0,3.629040030E0
2.457458652E0,1.424537778E0,-2.964529037E0,-1.442252874E0,3.591355405E0
2.459533449E0,1.404990077E0,-2.939483643E0,-1.462411404E0,3.571163440E0
2.461346190E0,1.370170712E0,-2.881451368E0,-1.510669708E0,3.530191601E0
2.463650680E0,1.323134065E0,-2.807536602E0,-1.566258430E0,3.476508449E0
2.465419036E0,1.266934514E0,-2.716517687E0,-1.623679876E0,3.408948188E0
2.467708026E0,1.243110776E0,-2.672535419E0,-1.654833913E0,3.380272955E0
2.469743180E0,1.174693823E0,-2.573575258E0,-1.712866187E0,3.307129535E0
2.471773757E0,1.103833556E0,-2.468506575E0,-1.773952723E0,3.234019402E0
2.473561844E0,1.066570759E0,-2.408641577E0,-1.805717707E0,3.193703785E0
2.475906333E0,9.853256345E-1,-2.288912058E0,-1.868025899E0,3.114402956E0
2.477811998E0,9.010262489E-1,-2.167349815E0,-1.930945039E0,3.039375309E0
2.479879756E0,8.136724830E-1,-2.061059237E0,-1.993253350E0,2.980450806E0
2.481728767E0,7.672467232E-1,-2.011579275E0,-2.017687798E0,2.950624131E0
2.483999026E0,6.805039048E-1,-1.934610248E0,-2.070833206E0,2.914472944E0
2.485770344E0,5.980370641E-1,-1.888795376E0,-2.111761093E0,2.895640036E0
2.488056103E0,5.528330207E-1,-1.877188921E0,-2.133752346E0,2.895230849E0
2.489883690E0,4.728097022E-1,-1.872301936E0,-2.167349815E0,2.902838056E0
2.492160372E0,3.940080702E-1,-1.896736622E0,-2.192395449E0,2.925653769E0
2.493978190E0,3.109304011E-1,-1.923614621E0,-2.210721254E0,2.946906749E0
2.496373487E0,2.828305960E-1,-1.938886285E0,-2.219273329E0,2.960480920E0
2.498180729E0,2.009746730E-1,-1.978592515E0,-2.235155821E0,2.991845702E0
2.500379679E0,1.453859210E-1,-2.009746552E0,-2.239432096E0,3.012519607E0
2.502275729E0,8.185594529E-2,-2.054950714E0,-2.236377716E0,3.038240959E0
2.504531256E0,5.314527452E-2,-2.079996109E0,-2.235155821E0,3.053707546E0
2.506280498E0,-7.330383174E-3,-2.131308794E0,-2.217440844E0,3.075642178E0
2.508587679E0,-6.352998316E-2,-2.183843136E0,-2.194838762E0,3.096857132E0
2.510396113E0,-8.246681094E-2,-2.210110426E0,-2.178345442E0,3.104283771E0
2.512692179E0,-1.417207420E-1,-2.268142700E0,-2.141082764E0,3.122305475E0
2.514499075E0,-1.954768747E-1,-2.324342251E0,-2.098322153E0,3.137472544E0
2.516860064E0,-2.455678284E-1,-2.372600555E0,-2.051285505E0,3.145998916E0
2.518738652E0,-2.700024247E-1,-2.391537428E0,-2.025018215E0,3.145322138E0
2.520900872E0,-2.987131178E-1,-2.413528681E0,-1.975538254E0,3.133225433E0
2.522802959E0,-3.310889602E-1,-2.420858860E0,-1.923614621E0,3.109738049E0
2.525052526E0,-3.408628106E-1,-2.404976368E0,-1.870469332E0,3.065738786E0
2.526837382E0,-3.500257730E-1,-2.393369913E0,-1.842980504E0,3.040939776E0
2.529108064E0,-3.824016452E-1,-2.324953079E0,-1.758070230E0,2.939804207E0
2.530941652E0,-6.646214128E-1,-1.722029090E0,-1.444085479E0,2.343605914E0
2.533211141E0,-1.125213742E0,-5.693264008E-1,-8.637634516E-1,1.528504438E0
2.535048998E0,-1.417818189E0,1.368338168E-1,-5.094616413E-1,1.512773305E0
2.537422756E0,-2.029294252E0,1.671327353E0,2.962696552E-1,2.645589914E0
2.539303806E0,-2.660928965E0,3.214372873E0,1.119716048E0,4.320474505E0
2.541366910E0,-2.961474657E0,3.955352545E0,1.496619821E0,5.162849677E0
2.543224382E0,-3.505144835E0,5.359120846E0,2.119702339E0,6.745320938E0
2.545483256E0,-3.978565454E0,6.571077347E0,2.566244841E0,8.098990873E0
2.547231498E0,-4.359745026E0,7.590611458E0,2.828917027E0,9.199322287E0
2.549539602E0,-4.535063744E0,8.012108803E0,2.899777412E0,9.652429729E0
2.551353344E0,-4.770246506E0,8.676730156E0,2.933374882E0,1.032693498E1
2.553643333E0,-4.892419815E0,9.049357414E0,2.864958048E0,1.067869963E1
2.555455882E0,-4.906469822E0,9.110444069E0,2.811201811E0,1.072270921E1
2.557809602E0,-4.859433174E0,9.035307884E0,2.682309389E0,1.060403994E1
2.559720306E0,-4.758029461E0,8.841053009E0,2.552195072E0,1.035938040E1
2.561883256E0,-4.643797398E0,8.560665131E0,2.437352419E0,1.003944862E1
2.563817152E0,-4.560109138E0,8.390845299E0,2.387261391E0,9.843774537E0
2.566035218E0,-4.398229599E0,8.035932541E0,2.296853304E0,9.444372425E0
2.567810806E0,-4.181372643E0,7.632150173E0,2.216830015E0,8.980419186E0
2.570092025E0,-3.960850239E0,7.228368282E0,2.157576084E0,8.520139506E0
2.571932921E0,-3.848451138E0,7.023728371E0,2.133141518E0,8.288161987E0
2.574196333E0,-3.613267899E0,6.624222755E0,2.099543810E0,7.832248479E0
2.576091844E0,-3.338378668E0,6.263201237E0,2.084882975E0,7.397242654E0
2.578408102E0,-3.022561312E0,5.955935955E0,2.072054863E0,6.993029482E0
2.580240421E0,-2.838690758E0,5.838650227E0,2.066557169E0,6.813124116E0
2.582413141E0,-2.435519695E0,5.644394875E0,2.065946341E0,6.485297523E0
2.584279459E0,-2.003638029E0,5.480072021E0,2.070222378E0,6.191249907E0
2.586564410E0,-1.560149789E0,5.400659561E0,2.064113617E0,5.988468592E0
2.588473306E0,-1.337184072E0,5.235115051E0,2.018298864E0,5.767843717E0
2.590620910E0,-8.863654733E-1,5.013370991E0,1.935831904E0,5.446740090E0
2.592447075E0,-4.379903674E-1,4.743979454E0,1.844202161E0,5.108645440E0
2.594725102E0,-2.131919712E-1,4.582100391E0,1.792889476E0,4.924992131E0
2.596582229E0,2.626720667E-1,4.293771744E0,1.695761919E0,4.623968089E0
2.598892448E0,7.177666426E-1,3.984673977E0,1.620014668E0,4.360878716E0
2.600925036E0,1.197906733E0,3.780034065E0,1.536326051E0,4.252521112E0
2.602933718E0,1.458135366E0,3.695734739E0,1.497230768E0,4.245740687E0
2.604763152E0,1.898569226E0,3.488651514E0,1.420261741E0,4.218103591E0
2.607050794E0,2.332283497E0,3.251635790E0,1.307862520E0,4.209891447E0
2.608822229E0,2.559525490E0,3.116634369E0,1.241278172E0,4.219638850E0
2.611108179E0,2.974302769E0,2.761721849E0,1.091005325E0,4.202841557E0
2.612931729E0,3.363424063E0,2.350609541E0,9.205739498E-1,4.205406406E0
2.615213410E0,3.657860994E0,1.873523712E0,7.422012687E-1,4.176230463E0
2.617034998E0,3.827681541E0,1.631621122E0,6.511823535E-1,4.211575943E0
2.619427333E0,4.062864780E0,1.116661668E0,4.630358517E-1,4.238892037E0
2.621387690E0,4.279110909E0,5.852088928E-1,2.797762752E-1,4.327994268E0
2.623391487E0,4.451985836E0,4.092797264E-2,9.040805697E-2,4.453091802E0
2.625327036E0,4.543004990E0,-2.406809032E-1,-1.160643995E-2,4.549390766E0
2.627510064E0,4.673119068E0,-8.265006542E-1,-2.260201424E-1,4.751024128E0
2.629280498E0,4.823391914E0,-1.419039965E0,-4.483750761E-1,5.047754371E0
2.631567602E0,4.901582718E0,-1.714698792E0,-5.699372888E-1,5.224034226E0
2.633469305E0,5.062240124E0,-2.334116220E0,-8.179485798E-1,5.634129345E0
2.635672448E0,5.218621731E0,-3.003013611E0,-1.069625020E0,6.115243348E0
2.637486729E0,5.330410004E0,-3.722002029E0,-1.319468975E0,6.633820038E0
2.639839833E0,5.378668308E0,-4.101349354E0,-1.444696307E0,6.916522733E0
2.641748959E0,5.447696209E0,-4.885089397E0,-1.723861694E0,7.517525627E0
2.643811910E0,5.493511200E0,-5.704870701E0,-2.049452782E0,8.180737847E0
2.645752998E0,5.489845753E0,-6.134919643E0,-2.225992918E0,8.528229001E0
2.647929448E0,5.495954514E0,-6.982800484E0,-2.620611906E0,9.264589865E0
2.649694805E0,5.409211636E0,-7.778758049E0,-3.045163155E0,9.951967943E0
2.651985987E0,5.334075451E0,-8.476366043E0,-3.469103813E0,1.059885954E1
2.653930613E0,5.265047550E0,-8.754309654E0,-3.665802240E0,1.085342201E1
2.656089640E0,5.180747986E0,-9.137932777E0,-4.015217304E0,1.124561849E1
2.657892382E0,5.085453033E0,-9.315694809E0,-4.294993401E0,1.144949652E1
2.660302371E0,5.009706020E0,-9.300423622E0,-4.481307507E0,1.147506649E1
2.662156075E0,4.961447716E0,-9.243613243E0,-4.538117886E0,1.143043583E1
2.664315294E0,4.911356449E0,-8.986438751E0,-4.599204540E0,1.122631667E1
2.666172690E0,4.877148151E0,-8.615643501E0,-4.586376190E0,1.091103724E1
2.668465948E0,4.874094009E0,-8.194146156E0,-4.501465797E0,1.054343483E1
2.670359152E0,4.893030643E0,-7.962017536E0,-4.441601276E0,1.034713941E1
2.672522025E0,4.991990566E0,-7.461719036E0,-4.282776356E0,9.946828344E0
2.674370036E0,5.106833458E0,-6.981578827E0,-4.062253952E0,9.556364270E0
2.676625410E0,5.215567589E0,-6.751282692E0,-3.941913366E0,9.397906376E0
2.678430152E0,5.407989979E0,-6.327342033E0,-3.675576210E0,9.098981992E0
2.680792025E0,5.654168606E0,-5.920506001E0,-3.395799875E0,8.863039587E0
2.682650267E0,5.907677650E0,-5.520999908E0,-3.117245436E0,8.665986056E0
2.684832756E0,6.035348415E0,-5.322468758E0,-2.977967978E0,8.580349494E0
2.686693729E0,6.270531654E0,-4.918076038E0,-2.703689575E0,8.415282317E0
2.688985333E0,6.484334469E0,-4.502687931E0,-2.450180531E0,8.265843982E0
2.690756382E0,6.674924374E0,-4.075693130E0,-2.213775635E0,8.128142005E0
2.693041833E0,6.756169796E0,-3.852116346E0,-2.105652571E0,8.057195753E0
2.694948998E0,6.908275127E0,-3.398854256E0,-1.905288696E0,7.931368136E0
2.697146294E0,7.029226303E0,-2.968194246E0,-1.722640038E0,7.822255954E0
2.698976152E0,7.086647511E0,-2.761721849E0,-1.633453608E0,7.779193480E0
2.701358256E0,7.189272881E0,-2.364048481E0,-1.478293896E0,7.711013073E0
2.703317536E0,7.262577057E0,-2.012190104E0,-1.340238333E0,7.654421814E0
2.705337602E0,7.335880756E0,-1.710422635E0,-1.216843605E0,7.630294911E0
2.707172305E0,7.384139061E0,-1.577254057E0,-1.155757070E0,7.638652658E0
2.709455871E0,7.475158215E0,-1.353066564E0,-1.036027431E0,7.666950652E0
2.711226882E0,7.577172279E0,-1.172250390E0,-9.162978530E-1,7.721872343E0
2.713512602E0,7.668191433E0,-1.051299095E0,-7.959573865E-1,7.780741469E0
2.715546909E0,7.706065178E0,-9.981538057E-1,-7.391469479E-1,7.805516623E0
2.717576179E0,7.786699295E0,-9.205739498E-1,-6.090326309E-1,7.864544682E0
2.719383305E0,7.305948257E0,5.864306539E-2,-3.848451078E-1,7.316312234E0
2.721708332E0,6.605286121E0,1.182024240E0,-1.740965992E-1,6.712473142E0
2.723576998E0,4.813618183E0,3.824627399E0,3.591887653E-1,6.158547826E0
2.725749871E0,3.048828363E0,6.150191307E0,9.401215911E-1,6.928494505E0
2.727630229E0,1.456913590E0,7.943691730E0,1.498452425E0,8.214024299E0
2.729902717E0,7.476990819E-1,8.655960083E0,1.748296380E0,8.862349525E0
2.731708190E0,-4.954117239E-1,9.726807594E0,2.176512957E0,9.979650665E0
2.733960640E0,-1.525330544E0,1.037676811E1,2.525316954E0,1.078801073E1
2.735802382E0,-1.990198970E0,1.056491470E1,2.678644180E0,1.107941557E1
2.738065140E0,-2.831971169E0,1.068403339E1,2.930320501E0,1.143483312E1
2.739907459E0,-3.758653879E0,9.983981133E0,3.114801884E0,1.111347601E1
2.742278255E0,-4.248567581E0,7.468438625E0,3.155729771E0,9.153498368E0
2.744090498E0,-4.291328430E0,5.710368156E0,3.099530220E0,7.786584088E0
2.746280217E0,-3.992615223E0,2.289522886E0,2.728734970E0,5.350596780E0
2.748134728E0,-3.748879910E0,-9.358455539E-1,2.552195072E0,4.630724259E0
2.750432409E0,-3.376252174E0,-3.718947649E0,2.280970812E0,5.516563985E0
2.752208882E0,-3.128240824E0,-4.878980637E0,2.102598190E0,6.165327392E0
2.754489371E0,-2.885116577E0,-6.696304798E0,1.794111252E0,7.508876800E0
2.756315305E0,-2.636494398E0,-8.029212952E0,1.574810624E0,8.596475547E0
2.758593794E0,-2.296242476E0,-8.791572571E0,1.278540969E0,9.176009197E0
2.760453690E0,-2.284636021E0,-8.933293343E0,1.133154988E0,9.290173945E0
2.762761563E0,-2.078163624E0,-8.826392174E0,8.704829812E-1,9.109429371E0
2.764729613E0,-2.066557169E0,-8.241793633E0,5.375614166E-1,8.513917611E0
2.766770986E0,-1.950492740E0,-7.779368877E0,3.860668242E-1,8.029448901E0
2.768621575E0,-1.938275456E0,-6.684698582E0,1.380555481E-1,6.961405476E0
2.770888871E0,-1.773952723E0,-5.538104534E0,-1.288925707E-1,5.816710702E0
2.772875563E0,-1.677435994E0,-4.303545475E0,-3.567453027E-1,4.632662558E0
2.774945102E0,-1.590082288E0,-3.707341194E0,-4.410447180E-1,4.057987291E0
2.776799844E0,-1.526552200E0,-2.610838175E0,-6.389650702E-1,3.091134736E0
2.779048448E0,-1.389718413E0,-1.618182063E0,-7.910705209E-1,2.274999566E0
2.780894305E0,-1.214400053E0,-7.929030657E-1,-8.643743396E-1,1.688373702E0
2.783260255E0,-1.151481032E0,-4.667010605E-1,-9.034696817E-1,1.536221310E0
2.785155959E0,-9.792169929E-1,6.230825558E-2,-9.364564419E-1,1.356355007E0
2.787199563E0,-8.582656980E-1,4.214970171E-1,-9.120218158E-1,1.321386974E0
2.789199101E0,-7.721336484E-1,5.357288122E-1,-9.040805697E-1,1.304054220E0
2.791316063E0,-6.652322412E-1,6.530149579E-1,-8.704829812E-1,1.275422711E0
2.793107113E0,-5.400048494E-1,6.884451509E-1,-7.806857824E-1,1.172617693E0
2.795372332E0,-4.612032473E-1,6.414085031E-1,-7.141014934E-1,1.064919831E0
2.797173767E0,-4.105014503E-1,5.986479521E-1,-6.695083380E-1,9.874878358E-1
2.799476755E0,-3.683517575E-1,5.112941861E-1,-5.467243791E-1,8.342735215E-1
2.801306575E0,-3.115412891E-1,4.068362415E-1,-4.428772926E-1,6.772842819E-1
2.803644794E0,-2.474004179E-1,2.895501256E-1,-3.176499307E-1,4.959311651E-1
2.805648524E0,-2.254092693E-1,2.388483137E-1,-2.474004179E-1,4.111749292E-1
2.807717909E0,-1.655444801E-1,1.362229437E-1,-1.301143020E-1,2.507815720E-1
2.809583536E0,-1.172861308E-1,3.909537569E-2,-1.832595794E-3,1.236440184E-1
2.811870140E0,-8.185594529E-2,0.000000000E0,6.780604273E-2,1.062923102E-1
2.813726998E0,-3.481931984E-2,-6.841690838E-2,1.826487035E-1,1.981257360E-1
2.815926409E0,1.954768784E-2,-1.404990107E-1,2.907718420E-1,3.235279713E-1
2.817768998E0,4.520402849E-2,-2.021963894E-1,4.080579877E-1,4.576440816E-1
2.820030948E0,6.902777404E-2,-2.260201424E-1,4.557054639E-1,5.133394668E-1
2.821987844E0,7.880161703E-2,-2.700024247E-1,5.430592299E-1,6.115752867E-1
2.824244717E0,8.857546002E-2,-3.054326177E-1,6.359107494E-1,7.109973117E-1
2.826072459E0,8.429940045E-2,-3.170390725E-1,7.024950385E-1,7.753189289E-1
2.828247255E0,8.429940045E-2,-3.231477141E-1,7.318165898E-1,8.044167796E-1
2.830132652E0,7.635815442E-2,-3.231477141E-1,7.990117669E-1,8.652599705E-1
2.832398717E0,6.475171447E-2,-3.121521473E-1,8.332201838E-1,8.921253401E-1
2.834168459E0,6.047565863E-2,-3.005456924E-1,8.478809595E-1,9.016025399E-1
2.836455832E0,3.665191308E-2,-2.803871334E-1,8.827002645E-1,9.268872985E-1
2.838282575E0,2.076941915E-2,-2.528982162E-1,8.924741149E-1,9.278463894E-1
2.840560947E0,-6.108652451E-4,-2.180788964E-1,8.973610401E-1,9.234801647E-1
2.842388113E0,-1.466076635E-2,-2.009746730E-1,9.028588533E-1,9.250728978E-1
2.844729870E0,-4.276056588E-2,-1.612684280E-1,8.979719281E-1,9.133397810E-1
2.846597190E0,-9.590584040E-2,-1.111774743E-1,8.906415105E-1,9.026630940E-1
2.848771178E0,-2.327396572E-1,-8.552113548E-3,9.010262489E-1,9.306391287E-1
2.850643344E0,-3.549126983E-1,7.513642311E-2,9.040805697E-1,9.741510058E-1
2.852923909E0,-6.701191664E-1,2.981022298E-1,9.266825914E-1,1.181805932E0
2.854736767E0,-1.081842303E0,5.827654600E-1,9.676105380E-1,1.564055147E0
2.856979755E0,-1.547321677E0,8.894197941E-1,9.993755221E-1,2.045488542E0
2.858804075E0,-1.783115625E0,1.041525245E0,1.014647126E0,2.300822670E0
2.861084063E0,-2.202780008E0,1.327410221E0,1.046412110E0,2.776551092E0
2.862909267E0,-2.527149439E0,1.561982393E0,1.054353356E0,3.152448934E0
2.865296101E0,-2.760499954E0,1.756237626E0,1.050688267E0,3.436375479E0
2.867169421E0,-2.842966795E0,1.842980504E0,1.051299095E0,3.547431060E0
2.869236601E0,-2.961474657E0,1.986533761E0,1.030529618E0,3.711959028E0
2.871059459E0,-3.037832975E0,2.113593817E0,1.011592865E0,3.836538561E0
2.873352793E0,-3.054937124E0,2.176512957E0,1.004262447E0,3.883090592E0
2.875128421E0,-3.088534594E0,2.287079573E0,9.786061049E-1,3.965784767E0
2.877409409E0,-3.097697735E0,2.393980980E0,9.523389339E-1,4.029122191E0
2.879213998E0,-3.102584600E0,2.449569702E0,9.450085163E-1,4.064414352E0
2.881514140E0,-3.086702108E0,2.536923409E0,9.199630618E-1,4.100005161E0
2.883338651E0,-3.087312937E0,2.627331495E0,9.010262489E-1,4.152856879E0
2.885682178E0,-3.053104401E0,2.718961239E0,8.790351152E-1,4.181734022E0
2.887599113E0,-3.048217535E0,2.758667469E0,8.686503768E-1,4.201955476E0
2.889722101E0,-3.014620066E0,2.851518869E0,8.478809595E-1,4.235327157E0
2.891593613E0,-2.992628813E0,2.947424889E0,8.338310719E-1,4.282337556E0
2.893874640E0,-2.970026731E0,3.026226521E0,8.210029006E-1,4.318929439E0
2.895663344E0,-2.960863829E0,3.062267542E0,8.167268038E-1,4.337192615E0
2.897930909E0,-2.933985710E0,3.137403965E0,8.118399382E-1,4.371574073E0
2.899772151E0,-2.916270733E0,3.203988314E0,8.100073338E-1,4.407526288E0
2.902035755E0,-2.910161972E0,3.232698917E0,8.112290502E-1,4.424644343E0
2.903861728E0,-2.911994696E0,3.282178879E0,8.203920126E-1,4.463793718E0
2.906248447E0,-2.926044464E0,3.337767601E0,8.319984674E-1,4.516043646E0
2.908040998E0,-2.967583418E0,3.381750107E0,8.491026759E-1,4.578619932E0
2.910251370E0,-2.996294022E0,3.402519464E0,8.631525636E-1,4.615186770E0
2.912104728E0,-3.070819616E0,3.437949657E0,8.930850029E-1,4.695426688E0
2.914403447E0,-3.182607889E0,3.459940672E0,9.279043078E-1,4.791783471E0
2.916164459E0,-3.316387415E0,3.465438604E0,9.761626720E-1,4.894954930E0
2.918460409E0,-3.391523838E0,3.459329844E0,1.000597239E0,4.946775894E0
2.920272575E0,-3.552792311E0,3.442836523E0,1.058018565E0,5.059136271E0
2.922564216E0,-3.713449717E0,3.413515091E0,1.125824690E0,5.168101712E0
2.924387382E0,-3.860668421E0,3.375030518E0,1.203404546E0,5.267235912E0
2.926731909E0,-3.924809217E0,3.359758854E0,1.249830246E0,5.315466357E0
2.928678344E0,-4.025601864E0,3.342654705E0,1.342070937E0,5.401848317E0
2.930739870E0,-4.101349354E0,3.326772213E0,1.436755061E0,5.472910102E0
2.932564421E0,-4.125783920E0,3.326161146E0,1.491732955E0,5.505516155E0
2.934857870E0,-4.156327248E0,3.331048250E0,1.598023534E0,5.560990726E0
2.936721459E0,-4.169155121E0,3.344487190E0,1.691485882E0,5.606119288E0
2.938914755E0,-4.165490150E0,3.357926369E0,1.777617812E0,5.637987476E0
2.940734844E0,-4.163657665E0,3.371365309E0,1.821600199E0,5.658655007E0
2.943020332E0,-4.153272629E0,3.390302181E0,1.892460585E0,5.685528073E0
2.944831305E0,-4.138000965E0,3.415347576E0,1.963320851E0,5.713342263E0
2.947233447E0,-4.123951435E0,3.436727762E0,2.028072596E0,5.738567034E0
2.949110151E0,-4.113566399E0,3.448334217E0,2.059837580E0,5.749379814E0
2.951175370E0,-4.096462250E0,3.461162567E0,2.120924234E0,5.767058946E0
2.952996921E0,-4.072638512E0,3.483153582E0,2.171625853E0,5.782274826E0
2.955293101E0,-4.059810638E0,3.503922939E0,2.190562725E0,5.792935649E0
2.957052767E0,-4.029878139E0,3.538742304E0,2.216830015E0,5.803184490E0
2.959350062E0,-3.997502089E0,3.571118116E0,2.226603746E0,5.804366614E0
2.961385255E0,-3.962682962E0,3.593720198E0,2.213775635E0,5.789514978E0
2.963415216E0,-3.946800232E0,3.587000608E0,2.192395449E0,5.766316263E0
2.965199498E0,-3.924809217E0,3.460551500E0,2.124589205E0,5.647426261E0
2.967548139E0,-3.932750463E0,3.130073547E0,2.014022827E0,5.414810668E0
2.969465036E0,-3.949243784E0,2.861292839E0,1.945605755E0,5.250609958E0
2.971588985E0,-4.008497715E0,2.130087137E0,1.770898342E0,4.872515375E0
2.973452805E0,-4.098905563E0,1.104444385E0,1.542434692E0,4.516628056E0
2.975740832E0,-4.175874710E0,-9.040805697E-2,1.249830246E0,4.359837022E0
2.977499421E0,-4.214970112E0,-7.379252315E-1,1.085507512E0,4.414615867E0
2.979797524E0,-4.230241776E0,-2.067778826E0,7.128797174E-1,4.762231855E0
2.981630805E0,-4.211305141E0,-3.470936298E0,3.042109013E-1,5.465805892E0
2.983902447E0,-4.186259747E0,-4.874094009E0,-1.398881376E-1,6.426595659E0
2.985740382E0,-4.177707195E0,-5.538715363E0,-3.701843321E-1,6.947491757E0
2.988115755E0,-4.097073078E0,-6.761056423E0,-8.179485798E-1,7.947762682E0
2.989905228E0,-4.055534363E0,-7.797083855E0,-1.249830246E0,8.877158963E0
2.992117562E0,-4.017660618E0,-8.238739967E0,-1.449583173E0,9.280071361E0
2.993973305E0,-3.927252769E0,-8.936347961E0,-1.788613439E0,9.923747641E0
2.996268639E0,-3.784310102E0,-9.395107269E0,-2.048231125E0,1.033364864E1
2.998038805E0,-3.615100622E0,-9.561873436E0,-2.229047298E0,1.046264919E1
3.000325370E0,-3.499646902E0,-9.516669273E0,-2.289522886E0,1.039501984E1
3.002150421E0,-3.216205597E0,-9.206960678E0,-2.345722437E0,1.003067880E1
3.004429947E0,-2.863736153E0,-8.548448563E0,-2.299907684E0,9.304113764E0
3.006247190E0,-2.393980980E0,-7.518529415E0,-2.154521704E0,8.179327189E0
3.008598101E0,-2.114204645E0,-6.875899315E0,-2.048231125E0,7.479512244E0
3.010471267E0,-1.524108768E0,-5.449528694E0,-1.766011477E0,5.927821443E0
3.012639254E0,-9.199630618E-1,-3.958406687E0,-1.410487890E0,4.301719612E0
3.014514036E0,-6.243042946E-1,-3.220481634E0,-1.203404546E0,3.494200954E0
3.016790178E0,-9.590584040E-2,-1.762346268E0,-7.409795523E-1,1.914187293E0
3.018568882E0,2.974913716E-1,-4.477642179E-1,-2.296853364E-1,5.845932472E-1
3.020846062E0,5.186246037E-1,6.304129362E-1,3.188716471E-1,8.763966437E-1
3.022666728E0,5.784893632E-1,1.084896684E0,6.004805565E-1,1.368293703E0
3.024948908E0,5.833762884E-1,1.820989251E0,1.161254883E0,2.237150565E0
3.026757574E0,4.783074856E-1,2.373822451E0,1.697594523E0,2.957302528E0
3.029161101E0,3.145956099E-1,2.820364952E0,2.169793367E0,3.572314672E0
3.031025498E0,1.985312104E-1,3.010954857E0,2.375654936E0,3.840442704E0
3.033104793E0,-2.626720630E-2,3.326161146E0,2.714074373E0,4.293045264E0
3.034918036E0,-2.797762752E-1,3.627317905E0,2.954755306E0,4.686820764E0
3.037221331E0,-3.958406746E-1,3.783088446E0,3.042719841E0,4.870994976E0
3.038975421E0,-6.114761233E-1,4.103181839E0,3.172223330E0,5.222356279E0
3.041277370E0,-7.825183868E-1,4.412890434E0,3.253468275E0,5.538139835E0
3.043078190E0,-9.260717034E-1,4.687169075E0,3.281568050E0,5.796192855E0
3.045380716E0,-9.865473509E-1,4.805676937E0,3.276070356E0,5.899190070E0
3.047182459E0,-1.084896684E0,5.012149334E0,3.243083477E0,6.067638107E0
3.049546831E0,-1.156978726E0,5.157535076E0,3.180775404E0,6.168962636E0
3.051464074E0,-1.199128509E0,5.270545483E0,3.097086906E0,6.229647355E0
3.053618908E0,-1.213178396E0,5.308418751E0,3.043941498E0,6.238324398E0
3.055509459E0,-1.235780358E0,5.326745033E0,2.924211979E0,6.200998423E0
3.057770600E0,-1.235169530E0,5.290092945E0,2.791654110E0,6.107704954E0
3.059527344E0,-1.224784851E0,5.255884647E0,2.718961239E0,6.042943949E0
3.061826639E0,-1.185689449E0,5.155091763E0,2.572964430E0,5.882259473E0
3.063630844E0,-1.125824690E0,5.018258095E0,2.420248032E0,5.684012322E0
3.065929716E0,-1.050077319E0,4.853324413E0,2.268753529E0,5.459364689E0
3.067735344E0,-1.003040791E0,4.760472775E0,2.191784382E0,5.335926409E0
3.070142408E0,-9.101892114E-1,4.569272041E0,2.038457394E0,5.085469490E0
3.071918305E0,-8.063421249E-1,4.372573376E0,1.883297563E0,4.828705340E0
3.074144100E0,-6.896668673E-1,4.163657665E0,1.731802940E0,4.561888531E0
3.075983459E0,-6.304129362E-1,4.052480221E0,1.654223084E0,4.422269827E0
3.078295677E0,-5.051855445E-1,3.820351124E0,1.504561067E0,4.136906954E0
3.080046767E0,-3.781255782E-1,3.579059362E0,1.357953429E0,3.846645602E0
3.082352062E0,-2.504547536E-1,3.323717833E0,1.212567568E0,3.546850423E0
3.084151228E0,-1.863138974E-1,3.186273098E0,1.142928839E0,3.390182215E0
3.086456985E0,-6.291911751E-2,2.893668652E0,9.975429177E-1,3.061432500E0
3.088263190E0,5.253441259E-2,2.582738161E0,8.594874144E-1,2.722501587E0
3.090622677E0,1.661553532E-1,2.255925417E0,7.220427394E-1,2.374479481E0
3.092559497E0,2.235766798E-1,2.086104870E0,6.524040699E-1,2.197146133E0
3.094628946E0,3.304781020E-1,1.736078978E0,5.174028873E-1,1.841437411E0
3.096447382E0,4.508185387E-1,1.377501130E0,3.805690408E-1,1.498525780E0
3.098745446E0,5.027421117E-1,1.195463300E0,3.182607889E-1,1.335354658E0
3.100508651E0,6.096435189E-1,8.423831463E-1,1.924225539E-1,1.057497529E0
3.102802062E0,7.165449262E-1,5.015203953E-1,7.208210230E-2,8.775848492E-1
3.104607421E0,8.197811842E-1,3.384193480E-1,1.649336144E-2,8.870405154E-1
3.106905677E0,8.698720932E-1,2.626720630E-2,-8.979719132E-2,8.748891131E-1
3.108722344E0,9.651671052E-1,-2.706133127E-1,-1.918116808E-1,1.020573773E0
3.111117985E0,1.053742528E0,-5.406157374E-1,-2.803871334E-1,1.217068460E0
3.112973613E0,1.137431145E0,-6.633996367E-1,-3.207042515E-1,1.355249019E0
3.115059485E0,1.177748203E0,-9.046914577E-1,-4.031710625E-1,1.538864637E0
3.116867844E0,1.258382440E0,-1.123381138E0,-4.770857692E-1,1.753032338E0
3.119176369E0,1.334129691E0,-1.324966669E0,-5.467243791E-1,1.958148680E0
3.120941997E0,1.371392488E0,-1.419650793E0,-5.797111392E-1,2.057228897E0
3.123232908E0,1.442252874E0,-1.598023534E0,-6.426302195E-1,2.246496420E0
3.125042921E0,1.506393671E0,-1.762346268E0,-6.982190013E-1,2.421279834E0
3.127336485E0,1.537547827E0,-1.841147900E0,-7.250970602E-1,2.505921917E0
3.129166190E0,1.592525721E0,-1.976759911E0,-7.757988572E-1,2.654351480E0
3.131503831E0,1.645060062E0,-2.095878601E0,-8.203920126E-1,2.787825815E0
3.133396959E0,1.685988069E0,-2.193617105E0,-8.607091308E-1,2.897469927E0
3.135476216E0,1.707368374E0,-2.235155821E0,-8.851437569E-1,2.948645075E0
3.137321574E0,1.735468149E0,-2.304183722E0,-9.266825914E-1,3.029827214E0
3.139593677E0,1.764789701E0,-2.351831198E0,-9.663888216E-1,3.095076740E0
3.141435651E0,1.773341775E0,-2.376876593E0,-9.877691269E-1,3.125695320E0
3.143650754E0,1.786780834E0,-2.416582823E0,-1.029918790E0,3.176978282E0
3.145477959E0,1.797165513E0,-2.448347807E0,-1.072679400E0,3.221001702E0
3.147756062E0,1.794722080E0,-2.475836754E0,-1.112385631E0,3.253950947E0
3.149586459E0,1.792278647E0,-2.490497589E0,-1.132544160E0,3.270702870E0
3.151969831E0,1.780061364E0,-2.507601738E0,-1.165530920E0,3.288639120E0
3.153755882E0,1.767843962E0,-2.532647371E0,-1.202793717E0,3.314556940E0
3.155971523E0,1.749518037E0,-2.546697140E0,-1.236391306E0,3.327933765E0
3.157827036E0,1.742187738E0,-2.553416729E0,-1.252273798E0,3.335167878E0
3.160123792E0,1.720807433E0,-2.557692766E0,-1.287093043E0,3.340595607E0
3.161911420E0,1.701259732E0,-2.548529863E0,-1.321301579E0,3.336933773E0
3.164180831E0,1.685988069E0,-2.530203819E0,-1.356120825E0,3.329196724E0
3.166001844E0,1.678046823E0,-2.514321327E0,-1.376890302E0,3.321668222E0
3.168285946E0,1.660331726E0,-2.478280306E0,-1.414763927E0,3.301534747E0
3.170098190E0,1.649947047E0,-2.415361166E0,-1.453859329E0,3.266496865E0
3.172453985E0,1.643838406E0,-2.346333504E0,-1.498452425E0,3.233086031E0
3.174424485E0,1.635897160E0,-2.308459759E0,-1.519221902E0,3.211414200E0
3.176495523E0,1.626734138E0,-2.227825642E0,-1.554041147E0,3.166151438E0
3.178387959E0,1.612073421E0,-2.141693592E0,-1.593136549E0,3.118287386E0
3.180648485E0,1.612073421E0,-2.092213392E0,-1.615127683E0,3.095928783E0
3.182580997E0,1.603521228E0,-1.987755537E0,-1.662164330E0,3.047169615E0
3.184705869E0,1.609019041E0,-1.870469332E0,-1.730581284E0,3.013720188E0
3.186741215E0,1.621847272E0,-1.747685432E0,-1.817934990E0,2.998279602E0
3.188811138E0,1.626123309E0,-1.687820673E0,-1.864360690E0,2.994804906E0
3.190775074E0,1.630399346E0,-1.588860512E0,-1.961488247E0,3.005015124E0
3.193024215E0,1.622458100E0,-1.509448051E0,-2.056783199E0,3.023435271E0
3.194905767E0,1.626734138E0,-1.452026725E0,-2.164906502E0,3.072696816E0
3.196966831E0,1.613295078E0,-1.438587666E0,-2.217440844E0,3.096659390E0
3.198807151E0,1.596801758E0,-1.453859329E0,-2.315179348E0,3.165997191E0
3.201084138E0,1.563204169E0,-1.510669708E0,-2.402533054E0,3.240045574E0
3.202874420E0,1.541823864E0,-1.552208543E0,-2.436130524E0,3.274340257E0
3.205140408E0,1.486845970E0,-1.667051196E0,-2.497828007E0,3.350957383E0
3.207175484E0,1.417207360E0,-1.823432803E0,-2.539366722E0,3.432457901E0
3.209205484E0,1.338405728E0,-2.011579275E0,-2.555249214E0,3.516685886E0
3.210994190E0,1.292590857E0,-2.117869854E0,-2.580905676E0,3.580117030E0
3.213337600E0,1.203404546E0,-2.340224743E0,-2.601064205E0,3.700049911E0
3.215192267E0,1.106887817E0,-2.585181713E0,-2.610227108E0,3.836880332E0
3.217377561E0,1.065348983E0,-2.706743956E0,-2.609005451E0,3.907472424E0
3.219412523E0,9.786061049E-1,-2.949868202E0,-2.604729414E0,4.055121162E0
3.221529677E0,8.991936445E-1,-3.180775404E0,-2.592512131E0,4.200833314E0
3.223301036E0,8.289441466E-1,-3.389080286E0,-2.571131706E0,4.334020285E0
3.225586984E0,7.977899909E-1,-3.492316723E0,-2.556471109E0,4.400941887E0
3.227491844E0,7.312057018E-1,-3.692680359E0,-2.519819021E0,4.529904846E0
3.229691407E0,6.682865620E-1,-3.884492159E0,-2.471560717E0,4.652364844E0
3.231507151E0,6.414085031E-1,-3.970624208E0,-2.443460941E0,4.706140972E0
3.233905061E0,5.974262357E-1,-4.135557652E0,-2.381152630E0,4.809328752E0
3.235693920E0,5.503895879E-1,-4.278500080E0,-2.301740170E0,4.889427312E0
3.237908331E0,5.290092826E-1,-4.375627518E0,-2.211943150E0,4.931395289E0
3.239752036E0,5.216789246E-1,-4.400673389E0,-2.168571711E0,4.933637446E0
3.242060369E0,5.051855445E-1,-4.437935829E0,-2.075109243E0,4.925095454E0
3.243831959E0,4.899139404E-1,-4.437325001E0,-1.982868552E0,4.884837410E0
3.246116754E0,4.764748812E-1,-4.378682137E0,-1.883908391E0,4.790511078E0
3.247927651E0,3.799581826E-1,-4.130671024E0,-1.769676566E0,4.509829984E0
3.250220677E0,-1.490511149E-1,-2.831360340E0,-1.276097536E0,3.109218959E0
3.252039267E0,-8.979719281E-1,-8.723155856E-1,-5.155702829E-1,1.353920522E0
3.254386830E0,-1.678657651E0,1.268767118E0,3.683517575E-1,2.136198616E0
3.256392651E0,-2.030516148E0,2.324342251E0,8.026769161E-1,3.189020689E0
3.258393907E0,-2.638937950E0,4.278500080E0,1.571145415E0,5.266692924E0
3.260216882E0,-3.108693123E0,5.930890560E0,2.170404196E0,7.039182491E0
3.262511177E0,-3.304170132E0,6.635828972E0,2.404976368E0,7.793309806E0
3.264309459E0,-3.632815599E0,7.871609688E0,2.751337051E0,9.095572760E0
3.266568369E0,-3.882048607E0,8.866098404E0,2.934596539E0,1.011384492E1
3.268415459E0,-4.048203945E0,9.635787964E0,3.009122133E0,1.087617492E1
3.270673715E0,-4.119064331E0,9.934501648E0,3.012176514E0,1.116844758E1
3.272498997E0,-4.200309277E0,1.038287640E1,2.970637798E0,1.158755406E1
3.274886061E0,-4.222911358E0,1.063943958E1,2.882673025E0,1.180425596E1
3.276904869E0,-4.202142239E0,1.074206543E1,2.764165163E0,1.186130592E1
3.278827523E0,-4.168544292E0,1.075367165E1,2.701246023E0,1.184546096E1
3.280658151E0,-4.086077690E0,1.072373962E1,2.565023184E0,1.175899512E1
3.282942907E0,-3.927863598E0,1.056491470E1,2.421469927E0,1.152861881E1
3.284713805E0,-3.843564034E0,1.045373726E1,2.344500780E0,1.138201612E1
3.286999176E0,-3.637091637E0,1.018434525E1,2.192395449E0,1.103430657E1
3.288836920E0,-3.410460711E0,9.842260361E0,2.028683424E0,1.061211043E1
3.291103407E0,-3.134960413E0,9.449474335E0,1.860084653E0,1.012820107E1
3.292975882E0,-2.983465910E0,9.225897789E0,1.779450417E0,9.858230198E0
3.295269792E0,-2.657874584E0,8.737205505E0,1.614516854E0,9.274142657E0
3.297223882E0,-2.313957453E0,8.202087402E0,1.439809442E0,8.643013831E0
3.299272407E0,-2.143526077E0,7.920478821E0,1.361007810E0,8.317513514E0
3.301135997E0,-1.805717707E0,7.330382824E0,1.200961113E0,7.644438264E0
3.303387984E0,-1.478904724E0,6.720739365E0,1.056796908E0,6.962206295E0
3.305208228E0,-1.176526427E0,6.136752129E0,9.395107627E-1,6.318751585E0
3.307443599E0,-1.039081812E0,5.863084793E0,8.845328689E-1,6.019788426E0
3.309277420E0,-7.727445364E-1,5.357899189E0,7.935139537E-1,5.471186547E0
3.311547638E0,-5.479460955E-1,4.893641472E0,7.232644558E-1,4.977055681E0
3.313450190E0,-3.365867436E-1,4.459316254E0,6.627888083E-1,4.520849598E0
3.315759638E0,-2.412917763E-1,4.253454685E0,6.395758986E-1,4.308033868E0
3.317619728E0,-6.719517708E-2,3.876550913E0,6.053674817E-1,3.924109066E0
3.319777946E0,8.735372871E-2,3.530801058E0,5.723807216E-1,3.577961218E0
3.321812330E0,1.551597714E-1,3.374419689E0,5.613851547E-1,3.424315418E0
3.323928869E0,2.901609838E-1,3.074484825E0,5.412266254E-1,3.135215558E0
3.325738767E0,4.098905921E-1,2.775160789E0,5.143485069E-1,2.852031222E0
3.327984830E0,5.308418870E-1,2.456289053E0,4.789183438E-1,2.558224345E0
3.329828382E0,5.839871764E-1,2.283414364E0,4.557054639E-1,2.400560278E0
3.332087715E0,7.000515461E-1,1.901623487E0,3.970624208E-1,2.064921941E0
3.333967459E0,8.081747293E-1,1.475850463E0,3.213151097E-1,1.713045353E0
3.336256061E0,9.187413454E-1,1.003651619E0,2.309070677E-1,1.380116048E0
3.338151767E0,9.847147465E-1,7.568620443E-1,1.789835095E-1,1.254806114E0
3.340297946E0,1.136820197E0,2.535090744E-1,5.803219974E-2,1.166188127E0
3.342184190E0,1.321301579E0,-2.492330223E-1,-7.757988572E-2,1.346838373E0
3.344448292E0,1.569312811E0,-7.641924024E-1,-2.443460971E-1,1.762508934E0
3.346243036E0,1.725083470E0,-1.042136073E0,-3.414736688E-1,2.044153820E0
3.348504638E0,2.098932981E0,-1.613906026E0,-5.613851547E-1,2.706541264E0
3.350399459E0,2.618779421E0,-2.186286688E0,-8.210029006E-1,3.508831843E0
3.352608022E0,2.913216352E0,-2.475225925E0,-9.590584636E-1,3.941239150E0
3.354472420E0,3.593109369E0,-3.027448177E0,-1.228450060E0,4.856435623E0
3.356820599E0,4.246735096E0,-3.537520647E0,-1.482569933E0,5.722484155E0
3.358765305E0,4.931515217E0,-3.992004395E0,-1.734857321E0,6.577664581E0
3.360762330E0,5.281540871E0,-4.193589687E0,-1.847256541E0,6.992369067E0
3.362616536E0,5.964488029E0,-4.536896229E0,-2.053117990E0,7.770060381E0
3.364879330E0,6.579629421E0,-4.865541458E0,-2.213775635E0,8.477371029E0
3.366677728E0,6.801373482E0,-5.010316849E0,-2.276694775E0,8.749016817E0
3.368935176E0,7.279681206E0,-5.211902142E0,-2.377487421E0,9.263375671E0
3.370840420E0,7.457442760E0,-5.187467575E0,-2.403143883E0,9.396721390E0
3.373038292E0,7.400021553E0,-4.837441921E0,-2.308459759E0,9.137294446E0
3.374896843E0,7.421401978E0,-4.517348289E0,-2.269975185E0,8.979778963E0
3.377204407E0,7.056715488E0,-4.300491333E0,-2.096489429E0,8.525651126E0
