"Time (s)","Linear Acceleration x (m/s^2)","Linear Acceleration y (m/s^2)","Linear Acceleration z (m/s^2)","Absolute acceleration (m/s^2)"
6.835565000E-3,3.490695953E-1,3.064441681E-2,1.784750223E-1,3.932454657E-1
1.504456500E-2,3.574366570E-1,-4.753065109E-2,2.836199999E-1,4.587596657E-1
2.329583400E-2,3.792018890E-1,-5.589056015E-2,2.511872053E-1,4.582715783E-1
3.150314100E-2,3.766760826E-1,-1.048593521E-1,2.457809448E-1,4.618318176E-1
3.973033400E-2,3.932747841E-1,-1.224031448E-1,3.276414871E-1,5.263045979E-1
4.793760300E-2,3.717784882E-1,-1.827650070E-1,3.907352686E-1,5.694702294E-1
5.614602600E-2,2.762413025E-1,-2.666854858E-1,4.681962729E-1,6.055065280E-1
6.437864100E-2,2.615032196E-1,-2.731704712E-1,4.838076830E-1,6.140650734E-1
7.258583400E-2,2.871122360E-1,-2.694091797E-1,4.806243181E-1,6.213006336E-1
8.081787200E-2,3.002834320E-1,-2.624974251E-1,5.759322643E-1,7.005519330E-1
8.902360300E-2,3.422904015E-1,-2.551708221E-1,7.264859676E-1,8.426486389E-1
9.723191000E-2,3.817915916E-1,-2.306728363E-1,8.133013248E-1,9.275957211E-1
1.054759870E-1,4.185142517E-1,-2.034974098E-1,8.833383322E-1,9.984247512E-1
1.136854490E-1,5.032916069E-1,-1.503405571E-1,9.210872650E-1,1.060333190E0
1.219117950E-1,5.834126472E-1,-8.807134628E-2,9.726227522E-1,1.137594786E0
1.301200640E-1,6.354827881E-1,-5.550384521E-4,9.888244867E-1,1.175420158E0
1.383281030E-1,7.045221329E-1,-1.217746735E-2,9.538158178E-1,1.185860169E0
1.465634100E-1,6.518225670E-1,1.613235474E-2,9.212316275E-1,1.128627761E0
1.547703720E-1,7.165055275E-1,3.182411194E-2,8.411189318E-1,1.105384097E0
1.630044870E-1,8.239302635E-1,-9.905815125E-3,7.403682470E-1,1.107747420E0
1.712121790E-1,8.566708565E-1,-8.708763123E-2,6.029940844E-1,1.051223610E0
1.794252560E-1,6.768679619E-1,-7.756757736E-2,5.646482706E-1,8.848698415E-1
1.876686020E-1,4.965424538E-1,-9.028434753E-2,6.853379011E-1,8.511132184E-1
1.958756410E-1,4.132514000E-1,-1.726717949E-1,7.326560020E-1,8.587066354E-1
2.041016020E-1,2.902693748E-1,-1.333255768E-1,7.488033772E-1,8.140875365E-1
2.123076790E-1,2.200536728E-1,-1.439557076E-1,8.271890879E-1,8.679796379E-1
2.205137180E-1,9.902858734E-2,-2.014217377E-1,8.140175343E-1,8.443944123E-1
2.287437560E-1,1.552786827E-1,-1.533608437E-1,8.118424416E-1,8.406659072E-1
2.369497560E-1,3.007669449E-1,-6.727409363E-2,9.049812555E-1,9.560217736E-1
2.451843710E-1,3.114228249E-1,-3.769588470E-2,1.028645754E0,1.075414916E0
2.533925250E-1,1.676177979E-2,1.725006104E-1,9.730817080E-1,9.883953805E-1
2.615986020E-1,7.229475975E-1,-1.620683670E-1,9.911195040E-1,1.237431718E0
2.698491020E-1,3.217458725E-2,-2.316589355E-1,7.421563864E-1,7.781369856E-1
2.780576400E-1,-3.401660919E-2,-5.260391235E-1,8.647381067E-1,1.012741962E0
2.862829870E-1,-6.682310104E-1,-5.822281837E-1,1.098365903E0,1.411357502E0
2.944891400E-1,-1.158930779E0,-8.946080208E-1,1.047608376E0,1.800257584E0
3.026933710E-1,-1.383437157E0,-1.113380909E0,9.635112286E-1,2.020363656E0
3.109249860E-1,-2.331648350E0,-1.237335682E0,6.989865303E-1,2.730598064E0
3.191307560E-1,-1.609750032E0,-1.450619221E0,5.265419483E-1,2.229986034E0
3.273661020E-1,-1.582727671E0,-9.168758392E-1,4.134364128E-1,1.875264742E0
3.355739480E-1,-1.295969486E0,-2.760090828E-1,1.287369013E0,1.847440635E0
3.437811020E-1,-3.475537300E-1,1.183338165E-1,2.112685919E0,2.144350316E0
3.520224480E-1,-3.156661987E-4,6.391859055E-1,2.314870358E0,2.401496095E0
3.602276790E-1,1.378355026E-1,6.615405083E-1,2.193559885E0,2.295286352E0
3.684501790E-1,2.664365768E-1,3.070325851E-1,1.700114250E0,1.748040595E0
3.766552940E-1,9.031343460E-2,3.949975967E-2,8.567306995E-1,8.623828842E-1
3.848616780E-1,1.504387856E-1,-2.080726624E-1,3.527717590E-1,4.363186622E-1
3.930937550E-1,1.695756912E-1,-5.505266190E-1,1.772918701E-1,6.027170816E-1
4.013009860E-1,3.829431534E-2,-7.939381599E-1,2.258267403E-1,8.263183243E-1
4.095354090E-1,1.994848251E-2,-1.051198006E0,3.438491821E-1,1.106185992E0
4.177416010E-1,1.867976189E-1,-1.233135223E0,6.988344193E-1,1.429645192E0
4.259519480E-1,3.599452972E-1,-1.096372128E0,7.174694538E-1,1.358806416E0
4.341949090E-1,4.475202560E-1,-9.064326286E-1,9.252998829E-1,1.370428533E0
4.424028710E-1,2.959256172E-1,-6.919827461E-1,1.481060266E0,1.661310207E0
4.506308320E-1,4.333457947E-1,-6.337380409E-1,1.782123804E0,1.940458125E0
4.588362550E-1,2.360949516E-1,-1.038198948E0,1.605815649E0,1.926717878E0
4.670405630E-1,6.624650955E-2,-1.563281059E0,1.085906029E0,1.904580839E0
4.752718700E-1,-1.304478645E-1,-2.067080021E0,7.186830044E-1,2.192337045E0
4.834778320E-1,-3.804073334E-1,-2.607776642E0,7.549698353E-1,2.741384359E0
4.917097170E-1,-3.678355217E-1,-3.156000137E0,8.964080811E-1,3.301391720E0
4.999147170E-1,-3.686909676E-1,-3.615869999E0,9.990706444E-1,3.769428475E0
5.081181780E-1,-4.185585976E-1,-3.945386171E0,1.128777742E0,4.124973034E0
5.163649470E-1,-4.275751114E-1,-4.322115898E0,1.191552401E0,4.503698862E0
5.245691400E-1,-2.666244507E-1,-4.727461815E0,1.312088728E0,4.913406216E0
5.327919470E-1,-1.761474609E-1,-5.335939407E0,1.331522703E0,5.502384028E0
5.409966010E-1,-1.728987694E-1,-5.662579060E0,1.142936707E0,5.779359818E0
5.491994090E-1,1.654300690E-1,-5.678066254E0,7.407901287E-1,5.728575172E0
5.574276010E-1,2.153553963E-1,-5.717878819E0,1.923923492E-1,5.725166456E0
5.656316780E-1,1.425261497E-1,-5.817021370E0,-5.041701794E-1,5.840568371E0
5.738747930E-1,-5.488348007E-2,-5.805072784E0,-1.359391570E0,5.962367623E0
5.820799470E-1,-6.633763313E-1,-5.645081043E0,-2.020748854E0,6.032448431E0
5.902840240E-1,-8.919019699E-1,-5.555022717E0,-1.971627474E0,5.961634122E0
5.985174080E-1,-6.468338966E-1,-5.265252113E0,-1.242700577E0,5.448447360E0
6.067208700E-1,-8.508734703E-1,-4.140999317E0,-5.618301630E-1,4.264682185E0
6.149444080E-1,-4.003658295E-1,-1.422188282E0,-1.018564701E-1,1.480975033E0
6.231486390E-1,-5.218935013E-2,-1.973123550E-1,-6.993055344E-2,2.157456281E-1
6.313528700E-1,3.984031677E-1,3.088941574E-1,3.516862392E-1,6.146738122E-1
6.395819470E-1,9.307727814E-1,6.031765938E-1,1.433043480E-1,1.118345255E0
6.477854470E-1,1.412998676E0,2.322284698E0,1.750993729E-2,2.718433019E0
6.560211770E-1,1.503067017E0,4.900197506E0,-7.540104389E-1,5.180702442E0
6.642246390E-1,2.431622028E0,3.389066219E0,-1.103501320E0,4.314657656E0
6.724338700E-1,2.084214211E0,1.308434963E0,-2.205094337E0,3.304299013E0
6.806704470E-1,4.402480125E-1,1.019171238E0,-3.009061337E0,3.207331983E0
6.888731770E-1,-6.763501167E-1,2.705493450E0,-3.798300982E0,4.712136950E0
6.971102160E-1,-8.851456642E-1,5.159430981E0,-3.155189991E0,6.112154675E0
7.053139470E-1,2.271461487E-2,7.284046173E0,-1.935293555E0,7.536790149E0
7.135187160E-1,5.863261223E-1,7.822140217E0,-7.522457242E-1,7.880071670E0
7.217506390E-1,8.639774323E-1,7.519807339E0,8.569037914E-1,7.617627158E0
7.299562160E-1,9.851288795E-1,6.101616383E0,5.081713200E-2,6.180840054E0
7.381879460E-1,1.095354557E0,5.288221359E0,-1.762604237E0,5.680832725E0
7.463930230E-1,1.659564972E0,5.180344582E0,-3.137065887E0,6.279435346E0
7.545994080E-1,2.426198483E0,4.777061462E0,-3.458192825E0,6.376978353E0
7.628472160E-1,2.992570877E0,4.046602249E0,-3.230299950E0,5.980410352E0
7.710540230E-1,3.158267975E0,3.574503899E0,-2.844728470E0,5.553756818E0
7.792796000E-1,3.660819530E0,3.553313255E0,-2.480754852E0,5.672898674E0
7.874852920E-1,4.148199558E0,3.327912331E0,-1.983529568E0,5.675997675E0
7.956899080E-1,4.031198025E0,2.687139511E0,-1.570074320E0,5.092780148E0
8.039215620E-1,3.377694607E0,2.275472641E0,-8.991548419E-1,4.170740465E0
8.121268690E-1,3.183001518E0,2.147932053E0,-2.166121453E-2,3.839997393E0
8.203716770E-1,3.786539555E0,2.974844933E0,1.088379264E0,4.936816139E0
8.285757150E-1,3.425473213E0,3.387323380E0,2.036508799E0,5.230219355E0
8.367801380E-1,3.399484396E0,2.661658287E0,1.967456818E0,4.744660718E0
8.450183690E-1,3.121758699E0,1.815197945E0,1.908664465E0,4.084522126E0
8.532216000E-1,2.582334995E0,1.247707367E0,2.673593283E0,3.920883669E0
8.614443310E-1,1.918499708E0,8.799276352E-1,3.700792313E0,4.260372931E0
8.696478300E-1,1.834769487E0,1.143407822E-1,3.993499041E0,4.396303842E0
8.778511380E-1,1.715026379E0,-7.172708511E-1,3.960618019E0,4.375190058E0
8.860797920E-1,1.104048729E0,-1.488993168E0,3.280905485E0,3.768337173E0
8.942854460E-1,8.517398834E-1,-2.853791714E0,3.205715656E0,4.375637193E0
9.025192150E-1,7.572846413E-1,-4.248758316E0,3.311093807E0,5.439555998E0
9.107245230E-1,1.126252174E0,-5.225987911E0,3.564057827E0,6.425099361E0
9.189325230E-1,1.562696457E0,-5.755238533E0,3.345313072E0,6.837829359E0
9.271703300E-1,1.464190960E0,-6.177619457E0,2.288027525E0,6.748474441E0
9.353739840E-1,1.165089369E0,-6.484138489E0,1.176621556E0,6.692228587E0
9.435952920E-1,2.362835407E-1,-6.883360863E0,5.988852978E-1,6.913403668E0
9.517987920E-1,-6.243361235E-1,-7.167355061E0,5.095429420E-1,7.212517464E0
9.600044070E-1,-6.272467375E-1,-7.714673519E0,6.933586597E-1,7.771124256E0
9.682376760E-1,-7.914874554E-1,-8.351051331E0,9.919097424E-1,8.446916340E0
9.764435990E-1,-9.382239580E-1,-8.649159431E0,1.187424660E0,8.780558091E0
9.846765220E-1,-4.133491516E-1,-8.884215355E0,1.472416520E0,9.014884936E0
9.928834840E-1,-7.909415960E-1,-8.941213608E0,1.264468670E0,9.064754294E0
1.001089868E0,1.890528202E-1,-8.958232880E0,5.668395758E-2,8.960406819E0
1.009340945E0,1.135061264E0,-9.216878891E0,-1.294306278E0,9.376270544E0
1.017546638E0,1.710600138E0,-8.651613235E0,-1.658133149E0,8.973626354E0
1.025772445E0,1.956170082E0,-8.109287262E0,-1.328912854E0,8.447079416E0
1.033977599E0,2.337256193E0,-7.827805996E0,-6.801578403E-1,8.197556216E0
1.042184907E0,1.549983978E0,-7.102364540E0,-3.604558706E-1,7.278458685E0
1.050416637E0,1.071647882E0,-6.340535641E0,-9.164811969E-1,6.495441415E0
1.058625061E0,1.836190462E0,-6.213762283E0,-1.650865197E0,6.686388639E0
1.066860176E0,2.453896761E0,-5.871548653E0,-2.161187410E0,6.720671389E0
1.075066214E0,6.299028397E-1,-3.995610714E0,-1.624876142E0,4.359117461E0
1.083271253E0,-5.073732138E-1,-1.838234425E0,9.844799042E-1,2.146097402E0
1.091512637E0,4.698247910E-1,-6.434640884E-1,6.161162853E0,6.212464010E0
1.099721522E0,-3.826832771E-2,2.304747581E0,1.009892273E1,1.035864693E1
1.107947560E0,3.565909147E0,2.576992798E1,1.158397484E1,2.847794531E1
1.116153945E0,5.589021206E0,5.228027344E1,4.482382774E0,5.276889144E1
1.124359483E0,-2.132252932E0,6.861937714E1,-1.050867081E1,6.945212440E1
1.132571714E0,-9.664204597E0,5.584628677E1,-1.859523582E1,5.964886749E1
1.140777291E0,-5.041340590E-1,2.253496933E1,-8.912943840E0,2.423880281E1
1.149009983E0,5.064599991E0,7.141949654E0,-8.005541563E-1,8.791956829E0
1.157215945E0,7.640379429E0,9.408502579E-1,2.702151239E-1,7.702831508E0
1.165428368E0,6.319449902E0,-1.261514664E0,-1.086087346E0,6.535017370E0
1.173670022E0,2.678205013E0,-2.484493256E0,-3.114081860E0,4.800311933E0
1.181877137E0,-1.331951857E0,-3.326170921E0,-3.761434555E0,5.194795343E0
1.190104868E0,-4.240082264E0,-4.322675228E0,-2.848300934E0,6.691534723E0
1.198313060E0,-6.573440552E0,-5.199139595E0,-1.396741986E0,8.496591163E0
1.206519406E0,-8.600866318E0,-6.084834099E0,-3.762155771E-2,1.053572602E1
1.214751906E0,-1.047661686E1,-7.001762390E0,3.103402257E-1,1.260478038E1
1.222958906E0,-1.132763767E1,-8.047687531E0,8.906033039E-1,1.392385809E1
1.231193944E0,-1.046917534E1,-8.867757797E0,1.629158258E0,1.381647268E1
1.239401714E0,-8.790343285E0,-9.390956879E0,1.740818977E0,1.298039510E1
1.247609714E0,-6.866895676E0,-1.003321838E1,2.009248495E0,1.232301939E1
1.255859829E0,-5.312622070E0,-1.044609356E1,1.911083937E0,1.187421853E1
1.264066675E0,-4.042052746E0,-1.084617710E1,1.494651198E0,1.167097812E1
1.272293906E0,-3.090658188E0,-1.108190918E1,6.146376729E-1,1.152122644E1
1.280502214E0,-2.446402550E0,-1.115046883E1,-3.018301427E-1,1.141967346E1
1.288708560E0,-1.662934542E0,-1.111498928E1,-7.242015600E-1,1.126200719E1
1.296941290E0,-9.748829603E-1,-1.100295830E1,-6.996920109E-1,1.106820026E1
1.305149098E0,-4.893243313E-1,-1.110452461E1,1.524549723E-2,1.111531095E1
1.313384636E0,6.159265041E-1,-1.099481201E1,8.289970756E-1,1.104321026E1
1.321592136E0,1.446916819E0,-9.950557709E0,4.449813366E-1,1.006504721E1
1.329800483E0,1.029334545E0,-8.919350624E0,-7.933505177E-1,9.013531506E0
1.338042098E0,1.643497944E-1,-8.016923904E0,-1.856346846E0,8.230680613E0
1.346248867E0,3.214554787E-1,-7.720795155E0,-2.719269037E0,8.191973849E0
1.354473598E0,1.003274560E0,-8.193095207E0,-2.616252899E0,8.658992329E0
1.362679675E0,2.084342957E0,-8.896894455E0,-2.133056641E0,9.383450705E0
1.370884944E0,1.919975281E0,-8.976872444E0,-7.464584112E-1,9.210197833E0
1.379115675E0,1.778341293E0,-8.169595718E0,-4.626853168E-1,8.373701073E0
1.387321059E0,2.360438824E0,-5.742103100E0,-1.306754827E0,6.344369758E0
1.395555136E0,4.389013290E0,-5.469379425E-1,-2.785977602E0,5.227260274E0
1.403761213E0,4.530377388E0,8.304395676E0,-1.391183662E1,1.682339160E1
1.411971098E0,1.768134952E0,1.548249245E1,-1.710260773E1,2.313726571E1
1.420211290E0,-1.341983914E0,1.771261597E1,-1.333841515E1,2.221375708E1
1.428416328E0,-4.060236454E0,1.462201786E1,-1.020091820E1,1.828517592E1
1.436654290E0,-4.726077080E0,1.221933842E1,-4.716819763E0,1.392466964E1
1.444859098E0,-2.103880882E1,1.148608112E1,3.345064545E1,4.115224437E1
1.453063597E0,-2.096705437E1,9.854400635E0,2.450113106E1,3.371990516E1
1.461294559E0,-4.624076843E0,1.041880703E1,-2.093086243E0,1.158941917E1
1.469498405E0,-1.030620337E0,1.181952763E1,-1.317246532E1,1.772786660E1
1.477730367E0,-1.818673134E0,1.169330502E1,-1.379611397E1,1.817618537E1
1.485935405E0,-2.350262880E0,1.128782749E1,-1.089092159E1,1.586035807E1
1.494139405E0,-2.580321312E0,1.118803501E1,-7.954809189E0,1.396814858E1
1.502387559E0,-1.140805244E0,1.025094509E1,-4.889725208E0,1.141458385E1
1.510589867E0,2.073175907E-1,8.624383926E0,-2.640023708E0,9.021790503E0
1.518814097E0,1.276307225E0,6.572377205E0,1.036235690E0,6.774871708E0
1.527018790E0,3.930490971E0,3.839329720E0,9.001399994E0,1.054582447E1
1.535223866E0,5.641317844E0,1.463235855E0,1.594941807E1,1.698085578E1
1.543454405E0,2.236529589E0,9.639654160E-1,1.394663429E1,1.415767997E1
1.551660289E0,-1.599442720E0,1.908543587E0,1.100845814E1,1.128658080E1
1.559894597E0,-1.975502014E0,2.369737625E0,8.681533813E0,9.213430087E0
1.568101443E0,-5.322082043E-1,1.642562866E0,8.418493271E0,8.593735352E0
1.576308443E0,6.314232349E-1,7.645788193E-1,9.582732201E0,9.633900171E0
1.584550597E0,1.910955787E0,-5.025596619E-1,1.229480934E1,1.245257624E1
1.592757020E0,3.258736372E0,-5.478038788E-1,9.473918915E0,1.003367288E1
1.600983443E0,3.445861816E0,1.014501572E0,-2.807513237E0,4.559090663E0
1.609189097E0,9.069469452E0,-1.814554214E0,-7.103378773E-1,9.276446682E0
1.617394905E0,1.288471222E1,-4.691201210E0,4.363496304E-1,1.371909541E1
1.625628981E0,1.117060661E1,-5.536225319E0,6.402888298E-1,1.248367785E1
1.633835828E0,8.572568893E0,-5.718539238E0,1.839346647E0,1.046775165E1
1.642069135E0,6.718109131E0,-5.931503773E0,3.846207619E0,9.752386392E0
1.650274328E0,5.844450951E0,-6.683506966E0,5.672240257E0,1.053570984E1
1.658570481E0,6.758800507E0,-8.263223648E0,7.107790947E0,1.282509031E1
1.666810097E0,8.128168106E0,-9.753034592E0,7.061100483E0,1.452748913E1
1.675016135E0,7.967527866E0,-1.042740822E1,5.237552166E0,1.412955396E1
1.683217635E0,5.769884586E0,-9.367884636E0,3.209153175E0,1.146069347E1
1.691388443E0,3.701830387E0,-7.662462711E0,2.767690182E0,8.948574856E0
1.699593058E0,1.661273122E0,-3.370403767E0,4.228868484E0,5.657099840E0
1.707823827E0,-1.195881367E0,1.716732025E0,7.403398991E0,7.693348926E0
1.716029789E0,-4.574984550E0,5.571242332E0,8.118685722E0,1.085736076E1
1.724262289E0,-5.124136925E0,7.696299553E0,2.177300930E0,9.498970753E0
1.732466020E0,-3.268010616E0,1.116894817E1,3.443878412E0,1.213612769E1
1.740669327E0,-6.177756786E-1,1.736088562E1,1.013013268E1,2.010973854E1
1.748916673E0,3.360756636E0,2.312313080E1,4.039234161E0,2.371263958E1
1.757121442E0,4.578648567E0,2.795393562E1,-3.644101143E0,2.855986717E1
1.765346135E0,-4.828391552E0,3.037885475E1,-5.132273674E0,3.118538783E1
1.773550058E0,-1.351592445E1,3.012309265E1,-4.891272545E0,3.337672051E1
1.781754289E0,-1.999372292E1,3.067136765E1,-3.058652401E0,3.674012934E1
1.789966212E0,-1.181542206E1,2.733461761E1,-5.276503563E-1,2.978361854E1
1.798171442E0,4.361608505E0,1.530807781E1,3.064591885E0,1.620964523E1
1.806405365E0,5.637316227E0,4.643496513E0,-2.236448050E0,7.638265117E0
1.814610981E0,6.319050312E0,3.151538849E0,-4.466591835E0,8.355419593E0
1.822854404E0,1.304359913E0,3.862985611E0,-3.923892498E0,5.658705236E0
1.831096019E0,-1.895732880E0,3.306500435E0,-5.984103203E0,7.094803691E0
1.839302211E0,-2.736536980E0,1.772818565E0,-8.467191696E0,9.073304554E0
1.847528134E0,-4.694314003E0,-2.967109680E-1,-6.065559387E0,7.675651897E0
1.855734711E0,-5.963015556E0,-3.684436321E0,-4.934445381E0,8.572127901E0
1.863947557E0,-6.518473625E0,-7.012377739E0,-5.349391460E0,1.096722066E1
1.872177865E0,-6.345757961E0,-9.565086365E0,-6.037514687E0,1.296962239E1
1.880382211E0,-7.497098923E0,-1.231567287E1,-4.914650917E0,1.523273069E1
1.888613365E0,-8.653026581E0,-1.479666138E1,-2.116980553E0,1.727129594E1
1.896817788E0,-7.583948135E0,-1.667968750E1,-4.467091560E-1,1.832833308E1
1.905028211E0,-5.323424816E0,-1.713384628E1,-1.614729404E0,1.801429686E1
1.913268250E0,-3.658995152E0,-1.683045769E1,-3.413005829E0,1.755850678E1
1.921474673E0,-2.739446640E0,-1.699512100E1,-4.602457523E0,1.781912795E1
1.929701557E0,-3.002350807E0,-1.631468201E1,-7.583865166E0,1.824001015E1
1.937908903E0,-4.688982964E0,-1.523377228E1,-7.601624489E0,1.765896582E1
1.946116980E0,-6.160681725E0,-1.339114571E1,-8.394550323E0,1.696305567E1
1.954351134E0,-7.689587593E0,-1.224292183E1,-7.853291512E0,1.645275296E1
1.962559019E0,-7.878752708E0,-1.333382416E1,-6.778224945E0,1.690591448E1
1.970793442E0,-7.860910416E0,-1.548651314E1,-5.584424019E0,1.824313003E1
1.979001942E0,-2.872869730E0,-1.803281212E1,-5.243571281E0,1.899817710E1
1.987209172E0,6.062348843E0,-1.783005524E1,-3.412291527E0,1.913913992E1
1.995459519E0,1.072168732E1,-1.437098598E1,-9.864814281E-1,1.795697532E1
2.003665365E0,1.075117493E1,-1.003698349E1,2.143361807E0,1.486347199E1
2.011889865E0,8.394593239E0,-6.669181824E0,6.243649483E0,1.240686668E1
2.020095672E0,5.000946045E0,-2.969470501E0,4.006963253E0,7.062787758E0
2.028301557E0,-1.098967791E0,2.887567520E0,-1.491661906E0,3.430864560E0
2.036531903E0,-6.837318897E0,9.747735023E0,-1.686776924E1,2.064676505E1
2.044738595E0,-1.414898396E1,1.744461060E1,-4.067678928E0,2.282661161E1
2.052972211E0,-2.999860954E1,1.997213364E1,-1.591939926E-1,3.603925692E1
2.061179595E0,-3.705241394E1,1.841986847E1,-1.249696827E1,4.322438142E1
2.069386672E0,-1.984971619E1,1.123774624E1,-8.664163589E0,2.440012098E1
2.077606095E0,-2.622297049E0,3.584808350E0,8.444161415E-1,4.521098465E0
2.085810634E0,-1.691043377E-2,5.578498840E-1,-4.835293770E0,4.867396460E0
2.094037172E0,-5.125830173E0,1.668334961E0,-6.173343182E0,8.195586773E0
2.102245210E0,-8.659290314E0,5.266758919E0,-6.201522827E0,1.188195875E1
2.110452249E0,-7.394188881E0,7.893040657E0,-6.492146969E0,1.261436056E1
2.118685480E0,-6.213945389E0,1.059183121E1,-7.212540627E0,1.424151494E1
2.126892672E0,-4.805317402E0,1.278665924E1,-6.434994698E0,1.509963200E1
2.135127710E0,-3.860435486E0,1.393955612E1,-3.959925652E0,1.499650620E1
2.143334403E0,-3.460343838E0,1.374290085E1,-3.385519981E0,1.457062280E1
2.151545979E0,-1.979070425E0,1.317764091E1,-2.940599918E0,1.364602754E1
2.159787018E0,1.649277210E-1,1.294750118E1,-2.396482229E-2,1.294857376E1
2.167994402E0,-7.135794163E-1,1.391069984E1,3.811362028E0,1.444102650E1
2.176219210E0,-9.499802589E-1,1.284015465E1,6.280937672E0,1.432557894E1
2.184425902E0,1.199622631E0,1.184177017E1,8.585693359E0,1.467585588E1
2.192632249E0,3.031136274E0,1.045428181E1,1.034339428E1,1.501551199E1
2.200863133E0,2.828033924E0,9.123939514E0,1.101453400E1,1.457957500E1
2.209069018E0,4.132223129E-2,5.826570511E0,2.749508286E1,2.810569716E1
2.217302979E0,-2.066208363E0,5.646507263E0,1.291471195E1,1.424577292E1
2.225508633E0,-2.700804710E0,8.308239937E0,2.320877552E0,9.039229477E0
2.233715787E0,3.805520535E0,3.274374008E0,2.108896494E0,5.445269149E0
2.241965402E0,8.018543243E0,-2.625013828E0,7.198697090E0,1.109094104E1
2.250172364E0,7.324180603E0,-5.156406403E0,4.146782875E0,9.870560101E0
2.258398133E0,6.918930531E0,-8.568526268E0,5.305503845E0,1.222454961E1
2.266603748E0,9.697113991E0,-1.083015442E1,5.056666374E0,1.539143071E1
2.274811864E0,1.395808792E1,-1.099412537E1,4.007024288E0,1.821414985E1
2.283045325E0,1.588957214E1,-8.876005173E0,5.176345348E0,1.892238151E1
2.291253517E0,1.302729225E1,-6.278133392E0,3.858231544E0,1.496700548E1
2.299489748E0,8.975755692E0,-5.173295498E0,4.941969395E0,1.147825065E1
2.307697017E0,7.614773750E0,-6.335149765E0,6.358978748E0,1.177096056E1
2.315904710E0,6.963454247E0,-7.331991673E0,5.245527267E0,1.139137188E1
2.324147671E0,7.432038307E0,-8.734174728E0,2.600151062E0,1.175932766E1
2.332355671E0,8.274122238E0,-9.529304504E0,2.626989841E0,1.289068729E1
2.340581633E0,8.138215065E0,-9.582438469E0,3.303270578E0,1.299866408E1
2.348788633E0,6.073544502E0,-8.345249176E0,3.828660011E0,1.100862226E1
2.356995556E0,4.713790417E0,-6.999603271E0,3.662050247E0,9.199178119E0
2.365227479E0,3.717661619E0,-5.727106094E0,2.271295547E0,7.195799858E0
2.373432209E0,2.377990723E0,-4.486124992E0,-6.512941718E-1,5.119017623E0
2.381664671E0,5.232872963E-1,-3.726252556E0,-3.522466898E0,5.154275968E0
2.389871632E0,-8.507761955E-1,-2.550726414E0,-5.010907173E0,5.686757958E0
2.398084363E0,-1.406445503E0,2.745914459E-2,-3.902203798E0,4.148016085E0
2.406326132E0,-1.362022638E0,6.505742073E0,2.375472069E0,7.058516355E0
2.414532863E0,-2.082763672E0,1.436825657E1,6.226274490E0,1.579718948E1
2.422760940E0,2.186988592E-1,2.277596664E1,8.989797592E0,2.448691378E1
2.430969363E0,2.546898365E0,3.653572083E1,1.018219852E1,3.801345491E1
2.439177325E0,1.863933086E0,4.959284592E1,5.096189499E0,4.988883402E1
2.447392517E0,-6.280942917E0,4.949578857E1,-5.640935898E0,5.021059140E1
2.455600863E0,-1.718820000E1,4.207367706E1,-7.395850182E0,4.604700990E1
2.463840594E0,-1.586194801E1,2.674076843E1,-7.367741585E0,3.195236622E1
2.472048440E0,-1.022306061E1,1.545267582E1,-9.417767525E0,2.078438124E1
2.480256286E0,-9.881141186E-1,8.371160507E0,-8.401493073E0,1.190116732E1
2.488507709E0,1.988454938E0,4.354344368E0,-7.480340004E0,8.880864513E0
2.496714324E0,1.237477660E0,2.711952209E0,-6.326107025E0,6.993258600E0
2.504940747E0,4.986035824E-1,8.563508987E-1,-5.785075188E0,5.869330228E0
2.513147017E0,-5.738666058E-1,-7.751369476E-1,-3.936764717E0,4.053181048E0
2.521353709E0,-1.656661987E0,-2.892282486E0,-3.341809273E0,4.719906369E0
2.529585824E0,-3.481088161E0,-4.750283718E0,-1.465406418E0,6.068820821E0
2.537794055E0,-6.263525963E0,-6.903142452E0,-9.593623877E-1,9.370459401E0
2.546027670E0,-1.018219852E1,-8.653282166E0,-2.433892488E0,1.358235221E1
2.554235901E0,-1.239429379E1,-9.741989136E0,-4.485356331E0,1.639034143E1
2.562444862E0,-1.249786282E1,-1.096922398E1,-6.264487267E0,1.776975662E1
2.570689516E0,-8.639259338E0,-1.248651314E1,-4.313437462E0,1.578466202E1
2.578899093E0,-1.608187437E0,-1.672710228E1,4.761054516E-1,1.681097540E1
2.587128747E0,-1.789162517E0,-1.705082512E1,-4.324949265E0,1.768154195E1
2.595338247E0,-5.122178555E0,-1.445888901E1,-5.570029259E0,1.631935692E1
2.603547555E0,-5.471775532E0,-1.344603729E1,-2.422799826E0,1.471754753E1
2.611784324E0,-4.959819794E0,-1.327948666E1,-1.931162119E0,1.430643091E1
2.619994439E0,-3.873193741E0,-1.300832081E1,-3.727705002E0,1.407529128E1
2.628233824E0,-4.519939899E0,-1.205320454E1,-4.492819786E0,1.363433262E1
2.636443208E0,-5.828201771E0,-1.174780464E1,-5.526533604E0,1.423100219E1
2.644658054E0,-5.356236935E0,-1.180809021E1,-7.377769470E0,1.491816848E1
2.652900478E0,-4.838060379E0,-1.155257130E1,-8.033470154E0,1.487969672E1
2.661163631E0,-4.566545963E0,-1.144820690E1,-7.844746590E0,1.461009351E1
2.669389285E0,-4.858079910E0,-1.151337242E1,-7.026255131E0,1.433621101E1
2.677595170E0,-3.713476181E0,-1.144647503E1,-5.063670635E0,1.305574419E1
2.685803131E0,9.534566402E-1,-1.263640404E1,4.624274254E0,1.348968862E1
2.694081093E0,8.761172295E0,-1.220777130E1,9.130177498E0,1.758260394E1
2.702288631E0,9.535645485E0,-1.063346672E1,6.523367882E0,1.570202146E1
2.710522785E0,8.172768593E0,-9.822165489E0,3.992291927E0,1.338683966E1
2.718951054E0,7.611259460E0,-9.228907585E0,2.203745127E0,1.216390145E1
2.726993746E0,5.497727394E0,-9.269567490E0,-1.637763023E0,1.090101627E1
2.735208593E0,2.039935589E0,-9.446734428E0,-3.117804050E0,1.015494119E1
2.743415208E0,-4.726238251E0,-9.030529022E0,-7.087224483E0,1.241436802E1
2.751670631E0,-1.278368759E1,-5.724264145E0,-1.127964211E1,1.798388708E1
2.759877746E0,-1.716387177E1,-2.624766827E0,-1.278343391E1,2.156163439E1
2.768083939E0,-1.849593163E1,-3.697710037E-1,-1.289786434E1,2.255196492E1
2.776290516E0,-1.779305077E1,4.118994713E0,-1.115671635E1,2.140166098E1
2.784496977E0,-1.411784458E1,1.103524494E1,-9.490928650E0,2.027727529E1
2.792704169E0,-1.098646450E1,1.784389877E1,-6.970483303E0,2.208381224E1
2.800910977E0,-3.365164280E0,2.407288551E1,-1.413891315E0,2.434804379E1
2.809117708E0,-3.288435936E-1,2.797879028E1,1.355424643E0,2.801353280E1
2.817324785E0,-5.883193970E0,2.451878738E1,1.204707146E0,2.524349868E1
2.825530554E0,-1.158121681E1,1.908974838E1,1.554252386E0,2.238210840E1
2.833736977E0,-1.381774616E1,1.700246429E1,-9.428977966E-2,2.190942244E1
2.841943015E0,-1.134664345E1,1.789188385E1,-2.881203175E0,2.138146761E1
2.850148361E0,-7.871515274E0,1.969530296E1,-5.443936348E0,2.189753764E1
2.858380208E0,-5.029713154E0,1.892072868E1,-6.822559357E0,2.073256628E1
2.866587977E0,-3.693490744E0,1.589194775E1,-5.168548584E0,1.711460696E1
2.874795592E0,-2.406424284E0,1.281692982E1,-2.698027372E0,1.331705371E1
2.883001054E0,-1.089943886E0,1.054510689E1,4.773983359E-1,1.061202931E1
2.891207092E0,6.659747124E0,7.765488625E0,1.853283119E1,2.116886575E1
2.899414169E0,8.804734230E0,3.722596169E0,3.190461922E1,3.330594233E1
2.907619707E0,4.857187748E0,7.573369980E0,1.465625381E1,1.719749928E1
2.915825207E0,-2.097932577E0,1.835440636E0,3.825675201E1,3.835817042E1
2.924029669E0,-9.053779602E0,9.182828903E0,3.736538887E-1,1.290096465E1
2.932234284E0,-6.057193756E0,7.526650429E0,1.210902023E1,1.549091456E1
2.940438823E0,1.991604686E0,3.280130386E0,1.454165649E1,1.503946536E1
2.948643553E0,5.317809582E0,3.780775070E-1,7.695590973E0,9.361846066E0
2.956849515E0,4.614278793E0,-1.888174057E0,2.657601357E0,5.649744686E0
2.965055322E0,3.877596140E0,-3.311549664E0,3.291740417E-1,5.109840364E0
2.973261169E0,1.099406052E1,-6.583377361E0,-1.717017889E0,1.292897423E1
2.981475630E0,1.491152000E1,-9.146133423E0,-2.032258511E0,1.761065757E1
2.989681707E0,1.548653793E1,-1.101565170E1,4.623048306E-1,1.901029104E1
2.997888822E0,1.531388378E1,-1.235646915E1,6.438426971E0,2.070388148E1
3.006095515E0,1.615758133E1,-1.399638367E1,1.345727158E1,2.525993564E1
3.014303784E0,1.507310867E1,-1.437088203E1,1.325719738E1,2.468753001E1
3.022535784E0,1.307168007E1,-1.340995216E1,7.077439308E0,2.001963496E1
3.030741707E0,1.083059883E1,-1.166561794E1,2.093611956E-1,1.591955857E1
3.038948168E0,8.690461159E0,-9.937684059E0,-3.097534895E0,1.356010332E1
3.047154399E0,6.464447498E0,-8.267085075E0,-1.285555482E0,1.057291020E1
3.055360130E0,4.536776066E0,-6.867199421E0,1.147438645E0,8.310077040E0
3.063566861E0,2.633293152E0,-4.764992714E0,3.333514929E0,6.383706617E0
3.071773899E0,1.506102562E0,-2.612264156E0,3.549899101E0,4.657687471E0
3.079979553E0,5.004940033E-1,-1.538450241E0,1.525222778E0,2.223427065E0
3.088185245E0,-4.769248962E-1,-1.423136234E0,-5.997440219E-1,1.616312776E0
3.096391168E0,-1.683785915E0,-5.665683746E-1,-4.956552982E-1,1.844399335E0
3.104598130E0,-3.059406281E0,1.946260452E0,7.101824284E-1,3.694895887E0
3.112804360E0,-5.383993149E0,6.869561195E0,5.573035479E-1,8.745789872E0
3.121010130E0,-9.511351585E0,1.579885101E1,3.786337852E0,1.882567015E1
3.129216514E0,-8.845179558E0,2.685065460E1,1.091439438E1,3.030377631E1
3.137425245E0,-7.635293007E0,3.786750793E1,8.012668610E0,3.945185312E1
3.145632706E0,-1.021753597E1,5.096355438E1,-9.491819382E0,5.283726480E1
3.153839514E0,-1.040389824E1,5.663805389E1,-6.638119698E0,5.796701545E1
3.162046976E0,-1.269597149E1,4.544724655E1,-1.363106847E0,4.720696952E1
3.170254591E0,-1.445475006E1,2.412009430E1,-3.207414150E0,2.830205388E1
3.178460976E0,-1.470709896E1,7.987062454E0,-6.958791733E0,1.812502990E1
3.186694360E0,-8.821373940E0,-2.311782837E0,-8.073486328E0,1.217957961E1
3.194902322E0,-2.020735264E0,-6.423872471E0,-6.747336388E0,9.532893415E0
3.203108860E0,2.771627903E0,-5.982544899E0,-3.041466236E0,7.261079917E0
3.211315860E0,4.844639301E0,-3.997717857E0,-7.947037220E-1,6.331179356E0
3.219523245E0,4.469651222E0,-3.313632011E0,1.870842457E0,5.870092900E0
3.227740629E0,2.484496355E0,-4.733900547E0,2.207512856E0,5.784085886E0
3.235947860E0,-2.996346354E-1,-7.322603226E0,2.831079364E-1,7.334197231E0
3.244154437E0,-3.824990988E0,-8.964906693E0,-1.614179969E0,9.879558949E0
3.252361014E0,-6.958807945E0,-9.585617065E0,-2.946706772E0,1.220623379E1
3.260568398E0,-8.685923576E0,-9.887491226E0,-3.107545853E0,1.352274352E1
3.268773937E0,-8.717170715E0,-9.898158073E0,-3.694923401E0,1.369726460E1
3.276979860E0,-7.279728889E0,-1.017669773E1,-4.619661331E0,1.333794963E1
3.285186667E0,-5.456113815E0,-1.058015537E1,-5.404898643E0,1.307370625E1
3.293392898E0,-3.687922239E0,-1.103567410E1,-4.748335838E0,1.256716223E1
3.301599206E0,-2.487161875E0,-1.133724880E1,-4.195690632E0,1.234192062E1
3.309805013E0,-2.143728495E0,-1.162946320E1,-4.103244305E0,1.251705236E1
3.318009821E0,-1.767249107E0,-1.218187428E1,-4.479591370E0,1.309915910E1
3.326216206E0,-2.115556479E0,-1.258199310E1,-4.092929840E0,1.339903744E1
3.334422706E0,-2.219135523E0,-1.250376892E1,-3.230436325E0,1.310360708E1
3.342628206E0,-1.850631952E0,-1.230275536E1,-2.635478973E0,1.271724724E1
3.350860052E0,-1.727360368E0,-1.222342300E1,-2.732169867E0,1.264359901E1
3.359067052E0,-1.802205563E0,-1.222785759E1,-2.345080376E0,1.258045500E1
3.367273436E0,-1.835559011E0,-1.210622311E1,-2.655851126E0,1.252930405E1
3.375479744E0,-1.681477904E0,-1.194570827E1,-2.451890469E0,1.231012108E1
3.383687475E0,5.799069405E0,-1.258636093E1,1.136837482E1,1.792444235E1
3.391893590E0,6.833261490E0,-1.081843567E1,7.654607773E0,1.491056783E1
3.400098975E0,2.671854734E0,-1.020658302E1,1.510060787E0,1.065802178E1
3.408304167E0,1.697947741E0,-9.994604111E0,-1.460066676E0,1.024240853E1
3.416509975E0,2.078751087E0,-9.848579407E0,-2.441529751E0,1.035745094E1
3.424715821E0,2.508103848E0,-9.689373016E0,-3.052435160E0,1.046383748E1
3.432922013E0,2.772695780E0,-9.647173882E0,-3.534740686E0,1.064190761E1
3.441128051E0,2.082692385E0,-9.365592003E0,-3.649524927E0,1.026503548E1
3.449334513E0,1.478901386E0,-9.068752289E0,-3.080338478E0,9.691124936E0
3.457540013E0,1.375099421E0,-8.780262947E0,-2.884865761E0,9.343787578E0
3.465745744E0,4.237084389E-1,-7.259485245E0,-3.034096956E0,7.879428863E0
3.473961744E0,-4.946594238E0,-3.678131104E-2,-1.045654583E1,1.156760555E1
3.482168936E0,-1.872696686E1,8.524308205E0,-2.570700455E1,3.292739286E1
3.490376051E0,-3.422306061E1,2.376656723E1,-2.803364944E1,5.021905113E1
3.498583090E0,-3.077410126E1,2.819452667E1,-1.289944172E1,4.368492004E1
3.506790513E0,-1.554300499E1,2.699274826E1,-1.127405524E0,3.116832536E1
3.515021705E0,-1.123434830E1,2.287070465E1,-1.544784427E0,2.552775101E1
3.523227513E0,-1.181743431E1,2.112390900E1,-8.564655781E-1,2.421992606E1
3.531432051E0,-1.407002354E1,1.933792686E1,-5.632389069E0,2.456918363E1
3.539637590E0,-1.302989578E1,1.834419632E1,-9.030939102E0,2.424552709E1
3.547843166E0,-1.014222717E1,1.735536957E1,-1.073473072E1,2.278833185E1
3.556049513E0,-5.652664185E0,1.630515099E1,-9.877552986E0,1.988407941E1
3.564255320E0,-2.018780947E0,1.462540340E1,-7.982986450E0,1.678409884E1
3.572461012E0,1.131324768E-1,1.307253361E1,-5.869263649E0,1.433011478E1
3.580665282E0,8.584778309E-1,1.222593784E1,-3.107452869E0,1.264384450E1
3.588869474E0,1.313314915E0,1.177689934E1,1.476246238E0,1.194150146E1
3.597074012E0,5.803754807E0,6.880653381E0,4.190443039E1,4.286033419E1
3.605277974E0,-1.102377892E0,7.249024391E0,2.653019714E1,2.752480612E1
3.613483282E0,-2.231627464E0,3.919242859E0,5.931576157E1,5.948697501E1
3.621687858E0,-9.298219681E0,4.245178223E0,1.259935570E1,1.622412375E1
3.629893820E0,-1.293473053E1,5.494051933E0,1.035998917E1,1.745913045E1
3.638100128E0,-3.727243662E0,4.498555183E0,1.212086296E1,1.345528383E1
3.646305820E0,5.960420132E0,2.518136024E0,-3.232066631E0,7.232832909E0
3.654512166E0,6.164985657E0,2.846708298E-1,-8.479999542E0,1.048801592E1
3.662718012E0,5.559077740E0,-2.004942894E0,-5.819574356E0,8.294009104E0
3.670923358E0,5.528889179E0,-3.851303577E0,-2.511927366E0,7.191031490E0
3.679153435E0,5.735787392E0,-5.516303062E0,4.229296446E-1,7.969173481E0
3.687359127E0,5.081271172E0,-6.512682915E0,2.083023310E0,8.518998860E0
3.695565243E0,5.530280113E0,-7.449165344E0,2.322456360E0,9.563883416E0
3.703770435E0,7.943368912E0,-8.497243881E0,3.487227917E0,1.214335299E1
3.711975204E0,1.125870514E1,-9.938379288E0,9.315406799E0,1.767219930E1
3.720189320E0,1.409486389E1,-1.119650936E1,1.428427887E1,2.297972221E1
3.728394204E0,1.397488689E1,-1.128660583E1,5.930743694E0,1.891715242E1
3.736600743E0,1.342828751E1,-1.112221432E1,3.513736725E-1,1.743978269E1
3.744807243E0,1.239563179E1,-1.084358883E1,-1.660959363E0,1.655276086E1
3.753012935E0,1.013796043E1,-1.032521343E1,-1.938638806E0,1.459954090E1
3.761218666E0,6.769579887E0,-9.536139488E0,-1.682541132E0,1.181507989E1
3.769424935E0,4.336605072E0,-8.910531998E0,-1.806252718E0,1.007304685E1
3.777630127E0,3.101158619E0,-8.588320732E0,-1.912548661E0,9.329216482E0
3.785837127E0,2.307312727E0,-8.272736549E0,-1.942586660E0,8.805424747E0
3.794043704E0,1.954572201E0,-7.651948929E0,-1.918914080E0,8.127416942E0
3.802250204E0,1.779442310E0,-6.339383125E0,-2.451873541E0,7.026085482E0
3.810455473E0,6.950690746E-1,-3.893962383E0,-3.371943712E0,5.197698381E0
3.818661435E0,-1.983577013E0,-1.316547394E-2,-4.153896809E0,4.603217331E0
3.826868473E0,-5.927494049E0,7.269436836E0,-8.624848127E-1,9.419330001E0
3.835074396E0,-1.045317268E1,2.187408257E1,1.250909710E1,2.728042920E1
3.843306127E0,-1.325145054E1,3.631429291E1,8.126482964E0,3.950150043E1
3.851514165E0,-1.828306675E0,4.618093872E1,-2.049617577E1,5.055803623E1
3.859722973E0,1.845913315E1,5.199713135E1,-1.866326141E1,5.824739129E1
3.867929319E0,6.445718288E0,4.852092743E1,1.029096222E1,5.001731287E1
3.876135819E0,-1.691197395E0,3.562265396E1,1.424160576E1,3.840126246E1
3.884340665E0,-2.713418484E0,1.828776550E1,4.643846512E0,1.906227472E1
3.892545588E0,-4.484715939E0,6.369941711E0,2.278317928E0,8.116622884E0
3.900750780E0,-3.199585915E0,-1.767624378E0,6.718204498E0,7.648275469E0
3.908956511E0,-1.349097610E0,-3.937286377E0,5.765197277E-1,4.201745277E0
3.917162896E0,-2.627097130E0,-4.119849205E0,-6.023221016E0,7.755900219E0
3.925368550E0,-3.447624683E0,-4.734991074E0,-2.299743891E0,6.292462029E0
3.933573550E0,-4.820925236E0,-6.286803246E0,2.333458185E0,8.258949224E0
3.941778780E0,-6.401822567E0,-6.618595123E0,1.191280246E0,9.284841528E0
3.949984242E0,-7.018984318E0,-7.016341209E0,-2.933471203E-1,9.928808456E0
3.958191165E0,-6.226624489E0,-7.765968800E0,-1.561287880E0,1.007565103E1
3.966405319E0,-5.305729866E0,-8.620398521E0,-2.932044983E0,1.053844997E1
3.974610203E0,-4.521771908E0,-9.502498627E0,-2.433402061E0,1.080117341E1
3.982815357E0,-3.739870787E0,-1.047274876E1,-1.698479891E0,1.124944150E1
3.991021588E0,-2.829202652E0,-1.132895470E1,-1.275899649E0,1.174638336E1
3.999226472E0,-2.040253162E0,-1.180516815E1,-7.503747344E-1,1.200365321E1
4.007456780E0,-1.394748211E0,-1.184194565E1,-5.249497890E-1,1.193534966E1
4.015661588E0,-1.064903617E0,-1.184236431E1,-8.708938360E-1,1.192199934E1
4.023868549E0,-1.030346632E0,-1.187188244E1,-9.343062639E-1,1.195308057E1
4.032074511E0,-1.096109629E0,-1.206539154E1,-9.862036109E-1,1.215515228E1
4.040280703E0,-1.263991356E0,-1.227536011E1,-1.562762022E0,1.243882491E1
4.048487549E0,-1.728006244E0,-1.249393082E1,-1.990138531E0,1.276890615E1
4.056693241E0,-1.715399981E0,-1.270244122E1,-1.990638971E0,1.297140137E1
4.064899088E0,-1.272591352E0,-1.244294262E1,-1.776897430E0,1.263343478E1
4.073104818E0,-6.292366982E-1,-1.191780186E1,-1.266494751E0,1.200141445E1
4.081310780E0,-2.413712740E-1,-1.144912148E1,-5.431780815E-1,1.146454033E1
4.089518011E0,2.260305882E-1,-1.085364246E1,-5.009276867E-1,1.086754678E1
4.097725164E0,8.692175746E-1,-1.052187538E1,-8.573095798E-1,1.059246810E1
4.105933049E0,1.131409049E0,-1.030940247E1,-1.542880058E0,1.048543487E1
4.114141049E0,1.050086617E0,-1.015848446E1,-2.006902218E0,1.040793663E1
4.122349626E0,5.178235769E-1,-9.980203629E0,-2.147252321E0,1.022170721E1
4.130558857E0,-3.664021492E-1,-9.716959000E0,-1.887066364E0,9.905279511E0
4.138766856E0,-1.364525676E0,-8.804330826E0,-2.020865202E0,9.135757646E0
4.146973780E0,-4.658011913E0,-7.640493870E0,-2.427981853E0,9.271964055E0
4.155181087E0,-8.076718330E0,-5.910258293E0,-3.330989122E0,1.054798657E1
4.163386664E0,-1.074250603E1,-4.093140602E0,-3.399246693E0,1.198791532E1
4.171616549E0,-1.087687302E1,-2.979682922E0,-1.984610915E0,1.145091950E1
4.179822779E0,-1.161729431E1,2.427788734E0,-9.727489948E-1,1.190806138E1
4.188029933E0,-1.863691902E1,1.182212067E1,7.447159290E-1,2.208284152E1
4.196236972E0,-1.591448689E1,2.317298126E1,8.873422146E-1,2.812552808E1
4.204443356E0,-7.005963802E0,2.815950775E1,-1.121869755E1,3.111110060E1
4.212657433E0,-1.807317138E0,3.156528664E1,-1.714051437E1,3.596430103E1
4.220863702E0,-4.930726051E0,2.963881683E1,-2.171507645E1,3.707176915E1
4.229068625E0,-1.176643753E1,2.765951729E1,-2.096894264E1,3.664961806E1
4.237274125E0,-1.391614342E1,2.337788963E1,-1.434705448E1,3.075748273E1
4.245480279E0,-1.166595078E1,1.887075424E1,-8.832069397E0,2.387897031E1
4.253684856E0,-7.933390617E0,1.471950817E1,-5.080818653E0,1.747619311E1
4.261889587E0,-5.639688492E0,1.267296314E1,-2.774865150E0,1.414602268E1
4.270094048E0,-3.121095657E0,1.209631157E1,2.633872747E0,1.276711703E1
4.278300587E0,9.401809692E0,6.800145149E0,5.044174957E1,5.175911610E1
4.286506856E0,1.383609772E-1,7.830085754E0,2.867542267E1,2.972556563E1
4.294713317E0,-8.992359638E-1,7.059983253E0,2.826704025E1,2.914922904E1
4.302921010E0,-5.904583454E0,-4.451880932E0,6.537231445E1,6.578923048E1
4.311128202E0,-9.633929253E0,8.739859581E0,2.156475306E0,1.318514786E1
4.319334240E0,-1.181864929E1,8.099786758E0,4.109227657E0,1.490546103E1
4.327541587E0,-5.387887001E0,5.517599106E0,1.611517906E1,1.786539175E1
4.335772740E0,2.589103937E0,3.073339462E0,5.875500679E0,7.118313204E0
4.343980356E0,4.444217205E0,2.524738312E-1,-1.985691309E0,4.874195275E0
4.352187356E0,3.695917368E0,-2.252446651E0,-3.265159845E0,5.421677778E0
4.360394625E0,3.815956116E0,-4.651006699E0,-1.248639584E0,6.144305103E0
4.368602279E0,4.511312962E0,-6.935333252E0,6.025116444E-1,8.295409106E0
4.376809779E0,4.854197025E0,-8.512753487E0,1.502883077E0,9.914073745E0
4.385016394E0,4.643137455E0,-9.296040535E0,1.778663397E0,1.054223594E1
4.393223240E0,4.450645924E0,-9.608528137E0,2.219189405E0,1.081928203E1
4.401430048E0,5.122324944E0,-1.009184074E1,3.436054707E0,1.182750753E1
4.409637279E0,6.872913837E0,-1.105204678E1,7.441071033E0,1.499180512E1
4.417845009E0,1.053182602E1,-1.243778801E1,1.359588909E1,2.122418738E1
4.426052394E0,1.318699551E1,-1.331517315E1,1.046863365E1,2.146585607E1
4.434260125E0,1.269104862E1,-1.252845955E1,6.175228357E-1,1.784394430E1
4.442466894E0,1.034902382E1,-1.163991642E1,-3.484137058E0,1.596023682E1
4.450674509E0,7.278557301E0,-1.069493675E1,-5.487568855E0,1.405249019E1
4.458889355E0,4.786320686E0,-1.007343483E1,-5.118138313E0,1.227103479E1
4.467095509E0,3.640809298E0,-9.772824287E0,-3.873738527E0,1.112517133E1
4.475301701E0,3.705212593E0,-9.193552017E0,-3.285643101E0,1.044248292E1
4.483506932E0,2.903555870E0,-7.205703735E0,-2.910926580E0,8.296161556E0
4.491712586E0,4.504361153E-1,-3.198495865E0,-2.813617229E0,4.283656196E0
4.499944240E0,-2.569602013E0,6.380354881E0,4.609999180E0,8.280330631E0
4.508150817E0,-8.282875061E0,2.711735916E1,2.730105782E1,3.936121117E1
4.516357355E0,-1.357036591E1,4.170032883E1,2.215377092E0,4.390877077E1
4.524562893E0,-7.745803833E0,5.508879852E1,-1.634098244E1,5.798103920E1
4.532770086E0,-3.036524057E-1,6.123565674E1,-2.584570646E0,6.129092809E1
4.540985778E0,-4.117930889E0,4.473413849E1,5.196438789E0,4.522282031E1
4.549192432E0,-4.531982899E0,2.322951889E1,2.428730488E0,2.379176640E1
4.557398624E0,-4.927070141E0,9.014595032E0,1.106740713E0,1.033265788E1
4.565604586E0,-4.185672283E0,8.326892853E-1,1.668154240E0,4.582135144E0
4.573810278E0,-1.749114513E0,-2.190649986E0,-6.230021715E-1,2.871668618E0
4.582016278E0,-5.988086462E-1,-2.079950809E0,-3.076346397E0,3.761472361E0
4.590223816E0,5.199758410E-1,-3.271942139E-1,-2.781526327E0,2.848564487E0
4.598431816E0,-8.271396160E-3,-3.236722946E-1,3.820184469E-1,5.007696717E-1
4.606640585E0,-1.934744954E0,-2.093107224E0,1.313575029E0,3.138441531E0
4.614849085E0,-4.036791325E0,-3.932705879E0,1.958937645E-1,5.639169628E0
4.623056008E0,-6.546641350E0,-5.191926956E0,-1.205702066E0,8.442057566E0
4.631262508E0,-7.678431034E0,-6.479441643E0,-2.616977453E0,1.038219814E1
4.639467085E0,-7.442602634E0,-7.679570675E0,-3.906541824E0,1.138548237E1
4.647672816E0,-6.343458176E0,-8.851003647E0,-4.767856598E0,1.188748012E1
4.655879047E0,-4.862494469E0,-1.024701881E1,-3.848109245E0,1.197719465E1
4.664110008E0,-3.624795914E0,-1.140551472E1,-2.693424940E0,1.226700653E1
4.672315701E0,-2.501029968E0,-1.192041588E1,-1.651785731E0,1.229145483E1
4.680521777E0,-1.734362006E0,-1.218161392E1,-1.194459438E0,1.236230006E1
4.688728470E0,-1.292498469E0,-1.208747387E1,-9.362392426E-1,1.219237962E1
4.696933470E0,-1.019042253E0,-1.200336933E1,-9.461030960E-1,1.208364322E1
4.705147970E0,-8.692495823E-1,-1.212061882E1,-6.953629851E-1,1.217162787E1
4.713354777E0,-8.464878798E-1,-1.224666977E1,-3.931920528E-1,1.228218475E1
4.721560085E0,-1.137861252E0,-1.251549530E1,-9.139922857E-1,1.260030685E1
4.729766200E0,-1.399472237E0,-1.271452999E1,-1.746319890E0,1.290997400E1
4.737972508E0,-1.175497532E0,-1.274186420E1,-2.107791662E0,1.296841099E1
4.746178585E0,-1.229749560E0,-1.257779789E1,-3.119813919E0,1.301716262E1
4.754383393E0,-1.002918243E0,-1.223270321E1,-3.859682322E0,1.286631340E1
4.762590277E0,-2.156022787E-1,-1.163329315E1,-3.029152632E0,1.202313435E1
4.770797085E0,4.544978142E-1,-1.099361420E1,-1.965369582E0,1.117715523E1
4.779004546E0,8.966257572E-1,-1.060400391E1,-1.744924068E0,1.078395088E1
4.787211700E0,1.378833055E0,-1.024065876E1,-1.606753826E0,1.045724296E1
4.795419008E0,1.002269268E0,-1.004336548E1,-2.391921520E0,1.037280205E1
4.803625239E0,3.035595417E-1,-9.740368843E0,-2.702895164E0,1.011299045E1
4.811832008E0,-1.020270586E-1,-9.054115295E0,1.685695648E-1,9.056259106E0
4.820038969E0,-6.445872784E-1,-8.488354683E0,1.424503326E-1,8.513985558E0
4.828271585E0,-1.343287110E0,-8.175364494E0,-2.363984823E0,8.615650244E0
4.836478277E0,-2.882902145E0,-7.513151169E0,-3.238652706E0,8.674528034E0
4.844684315E0,-6.266644478E0,-6.440135002E0,-4.745263100E0,1.016187452E1
4.852889546E0,-8.544186592E0,-5.315007210E0,-4.927878380E0,1.120430326E1
4.861095738E0,-1.058792400E1,-3.523747444E0,-4.145452499E0,1.190402063E1
4.869303008E0,-1.120646954E1,-1.008854866E0,-1.791499257E0,1.139351645E1
4.877508354E0,-1.439486313E1,1.299345970E1,3.209251881E0,1.965556860E1
4.885715507E0,-2.178195000E1,2.348243332E1,-7.980265617E0,3.300852404E1
4.893921123E0,-1.287011719E1,3.120261383E1,-1.977579117E1,3.911936787E1
4.902126854E0,-5.436157227E0,3.557825851E1,-2.819851303E1,4.572220928E1
4.910332469E0,-4.896916866E0,3.434428406E1,-2.899395370E1,4.521237655E1
4.918537969E0,-7.513481140E0,3.248056030E1,-2.335806465E1,4.070673631E1
4.926741700E0,-1.227838516E1,2.891630936E1,-1.616020584E1,3.532794845E1
4.934946238E0,-1.287855816E1,2.405532074E1,-8.833940506E0,2.868020608E1
4.943151507E0,-1.136421394E1,1.980494118E1,-2.933240414E0,2.302140206E1
4.951363815E0,-8.823589325E0,1.771984291E1,8.220739365E-1,1.981222771E1
4.959567469E0,-3.090413809E0,1.276727486E1,4.921171570E1,5.093473203E1
4.967770007E0,-5.329495430E0,7.556766510E0,5.037503433E1,5.121671920E1
4.975975084E0,-2.807949543E0,3.800999641E0,3.904744339E1,3.933236599E1
4.984181315E0,-2.604532719E0,-5.140221596E0,2.967493439E1,3.022924411E1
4.992413815E0,-9.315902710E0,8.610853195E0,-8.518819809E-1,1.271450113E1
5.000620084E0,-1.203383827E1,8.434423447E0,8.426715851E0,1.693996170E1
5.008825699E0,-7.183966160E0,4.817575455E0,2.303153610E1,2.460223686E1
5.017032199E0,-6.695425510E-1,1.280599594E0,1.686514854E1,1.692694473E1
5.025237930E0,2.862986326E0,-1.602210999E-1,2.710256100E0,3.945611439E0
5.033445468E0,2.452257633E0,-1.757321358E0,-3.697293997E0,4.771973256E0
5.041653622E0,2.569437981E0,-3.957536697E0,-3.465489626E0,5.854376704E0
5.049859853E0,3.323076010E0,-6.088155746E0,-1.677853346E0,7.136082007E0
5.058065584E0,3.834626675E0,-7.680033684E0,-5.235123634E-1,8.600078157E0
5.066272161E0,4.217470646E0,-8.866670609E0,-1.364326477E-2,9.818609498E0
5.074478776E0,4.298738003E0,-9.551244736E0,1.410865784E-1,1.047498591E1
5.082684699E0,4.308836937E0,-9.935488701E0,3.509551287E-1,1.083527485E1
5.090890776E0,4.798542023E0,-1.044418049E1,1.260682344E0,1.156270866E1
5.099096391E0,5.971956253E0,-1.118626022E1,2.793185234E0,1.298455094E1
5.107303160E0,7.419020176E0,-1.175385475E1,4.601389885E0,1.464130291E1
5.115510853E0,9.296332359E0,-1.249792480E1,5.072643280E0,1.638144162E1
5.123717930E0,1.062668800E1,-1.291312790E1,3.309417486E0,1.704780379E1
5.131926122E0,9.525151253E0,-1.240847683E1,-3.840758801E-1,1.564756588E1
5.140132968E0,7.606685162E0,-1.192549610E1,-2.529217005E0,1.436927469E1
5.148339776E0,5.387896061E0,-1.124139309E1,-3.845466137E0,1.304553381E1
5.156570430E0,4.314701557E0,-1.062982368E1,-4.029494762E0,1.215921992E1
5.164776237E0,4.911642551E0,-9.993703842E0,-4.130957603E0,1.187700129E1
5.172981853E0,4.861866951E0,-9.300932884E0,-4.481861115E0,1.141193155E1
5.181187699E0,3.404675722E0,-5.533421516E0,-3.338201046E0,7.304392971E0
5.189394814E0,-1.587241411E0,6.097985268E0,8.674531937E0,1.072157936E1
5.197610006E0,-7.533404827E0,2.611426163E1,2.636052322E1,3.786269976E1
5.205814891E0,-1.060028458E1,4.931916046E1,-1.640162468E-1,5.044573840E1
5.214020545E0,-1.063334703E0,6.472666931E1,-1.952984428E1,6.761721096E1
5.222228160E0,4.370778084E0,6.096321106E1,-1.222184944E1,6.232969122E1
5.230435545E0,-3.650096655E0,4.357563400E1,5.973081112E0,4.413430392E1
5.238641237E0,-6.866850853E0,2.321121597E1,3.675241470E0,2.448308778E1
5.246846775E0,-8.148184776E0,8.849664688E0,1.966999769E0,1.218928088E1
5.255054391E0,-5.731227398E0,1.051338196E0,2.485504150E0,6.334825204E0
5.263260621E0,-2.541962624E0,-1.337997437E0,-9.731214046E-1,3.032948464E0
5.271466929E0,6.611871719E-2,-9.842529297E-1,-4.393814087E0,4.503190840E0
5.279675583E0,2.904944897E0,2.281894684E-1,-3.396990299E0,4.475524369E0
5.287883160E0,1.517972827E0,-2.835559845E-1,6.419985294E-1,1.672365873E0
5.296091198E0,-1.299911737E0,-2.679727554E0,1.561053514E0,3.362677262E0
5.304298544E0,-4.277189255E0,-4.079332352E0,4.603968859E-1,5.928512937E0
5.312505544E0,-7.473602295E0,-4.852715492E0,-1.465415716E0,9.030560455E0
5.320736852E0,-9.008023262E0,-5.618161201E0,-2.670048714E0,1.094702601E1
5.328944852E0,-8.022352219E0,-7.118649483E0,-3.853900671E0,1.139674760E1
5.337152275E0,-6.317470074E0,-8.900838852E0,-4.287670612E0,1.172686999E1
5.345360121E0,-4.672635078E0,-1.045137310E1,-3.698285818E0,1.203087845E1
5.353567506E0,-3.283437729E0,-1.148914146E1,-3.057680130E0,1.233412918E1
5.361773736E0,-2.231635094E0,-1.201880741E1,-2.013584614E0,1.238896484E1
5.369979583E0,-1.385103583E0,-1.205946732E1,-1.051599979E0,1.218421628E1
5.378184852E0,-8.687829971E-1,-1.207244110E1,-1.013195038E0,1.214599449E1
5.386391275E0,-8.502424955E-1,-1.216006851E1,-1.298161268E0,1.225868676E1
5.394599198E0,-6.866479516E-1,-1.237356186E1,-1.384444714E0,1.246969148E1
5.402805506E0,-6.458806992E-1,-1.238209820E1,-1.583320141E0,1.249961681E1
5.411011929E0,-3.785268068E-1,-1.253102112E1,-1.201806307E0,1.259420943E1
5.419218352E0,1.394782066E-1,-1.243279266E1,-1.064930439E0,1.247909710E1
5.427424005E0,8.242285252E-2,-1.253950882E1,-1.496848822E0,1.262880166E1
5.435630236E0,-6.330633163E-2,-1.236094284E1,-1.679144979E0,1.247463200E1
5.443845736E0,-1.725370884E-1,-1.198691750E1,-1.877098560E0,1.213422676E1
5.452051928E0,2.076729536E-1,-1.138477612E1,-1.801823854E0,1.152834873E1
5.460257851E0,6.411771774E-1,-1.097455215E1,-1.605909586E0,1.110994369E1
5.468462698E0,8.140149117E-1,-1.070394897E1,-1.595293641E0,1.085274646E1
5.476668659E0,1.002292514E0,-1.036321640E1,-2.112491369E0,1.062372177E1
5.484899813E0,9.551672935E-1,-1.009444714E1,-2.560953617E0,1.045794870E1
5.493105851E0,6.600962877E-1,-9.699903488E0,-2.734637260E0,1.009960869E1
5.501311082E0,-1.657650471E-1,-9.300806999E0,-2.460039854E0,9.622072800E0
5.509517120E0,-1.301865816E0,-8.556200027E0,-2.416052341E0,8.985584145E0
5.517722582E0,-3.666724682E0,-7.685577393E0,-3.522799015E0,9.215372084E0
5.525927467E0,-6.124401093E0,-6.392705917E0,-5.032504559E0,1.018337271E1
5.534132928E0,-8.975017548E0,-4.741625786E0,-6.549969673E0,1.208039974E1
5.542337620E0,-1.051825714E1,-3.082105160E0,-7.666961670E0,1.337592639E1
5.550541390E0,-9.754854202E0,-1.700435638E0,-5.790364265E0,1.147070095E1
5.558745736E0,-7.686361313E0,2.285261154E-1,-1.635374784E0,7.861731686E0
5.566949659E0,-8.385547638E0,9.722070694E0,2.273269892E0,1.303855144E1
5.575153966E0,-1.508773613E1,2.517757034E1,-9.914039612E0,3.098125258E1
5.583359389E0,-8.191842079E0,3.127386284E1,-2.094940376E1,3.852321756E1
5.591565351E0,-1.956446767E-1,3.507803345E1,-2.489352036E1,4.301388221E1
5.599773428E0,-2.407400846E0,3.485456848E1,-2.541031075E1,4.320093072E1
5.607980928E0,-1.138822556E1,3.283470917E1,-1.910282516E1,3.965763151E1
5.616185466E0,-1.534151745E1,2.857371521E1,-1.118577576E1,3.430657281E1
5.624390428E0,-1.336282158E1,2.305197144E1,-5.583262920E0,2.722372518E1
5.632596043E0,-9.453759193E0,1.738678360E1,-1.318402529E0,1.983461600E1
5.640800620E0,-5.644463539E0,1.420633125E1,1.070390582E0,1.532401880E1
5.649031005E0,1.231147289E0,9.080452919E0,3.360231018E1,3.482937838E1
5.657237274E0,-8.110008240E-1,4.240678787E0,4.375712204E1,4.396961233E1
5.665442658E0,-1.374887466E0,3.288198471E0,3.215795135E1,3.235485126E1
5.673648120E0,-3.295655727E0,-5.752275944E0,7.110198212E1,7.141037660E1
5.681854504E0,-3.439432621E0,3.351508141E0,6.288118362E0,7.912189085E0
5.690068658E0,-1.056368351E1,6.010608673E0,3.994300604E0,1.279348519E1
5.698273889E0,-1.069375896E1,5.451034546E0,1.750363731E1,2.122375032E1
5.706479274E0,-2.895543575E0,2.100610733E0,1.767334366E1,1.803174462E1
5.714684735E0,2.382817507E0,8.265686035E-2,5.750813961E0,6.225472885E0
5.722890120E0,2.633878469E0,-1.816414356E0,-1.199354887E0,3.416888797E0
5.731094350E0,2.527365685E0,-3.755736828E0,-2.663626194E0,5.252431906E0
5.739298350E0,3.094881773E0,-5.816085815E0,-1.502513647E0,6.757417751E0
5.747503081E0,3.656070709E0,-7.543863773E0,-3.823387623E-1,8.391836306E0
5.755708543E0,4.002237797E0,-8.802467346E0,8.172798157E-2,9.669954407E0
5.763912504E0,4.092484951E0,-9.463983536E0,4.198123217E-1,1.031947963E1
5.772117004E0,4.124786377E0,-9.856154442E0,8.068571091E-1,1.071488037E1
5.780320966E0,4.155010700E0,-1.005978489E1,7.673890591E-1,1.091110773E1
5.788525389E0,4.502969742E0,-1.026518917E1,1.047251105E0,1.125822278E1
5.796729273E0,5.535352707E0,-1.085669136E1,3.743720055E0,1.274846331E1
5.804934350E0,7.274039268E0,-1.152098942E1,8.749954224E0,1.619279295E1
5.813164312E0,8.868477821E0,-1.197460175E1,8.981900215E0,1.739872171E1
5.821369773E0,8.802958488E0,-1.195968819E1,2.392345428E0,1.504159354E1
5.829574196E0,7.799319744E0,-1.180272484E1,-3.581897259E0,1.459327551E1
5.837779004E0,6.276840687E0,-1.146128559E1,-4.338528156E0,1.376890057E1
5.845986081E0,4.351112366E0,-1.103112030E1,-3.738754511E0,1.243366717E1
5.854192388E0,3.992389917E0,-1.017152882E1,-3.393284082E0,1.144174605E1
5.862397388E0,4.541596889E0,-8.801411629E0,-3.937175989E0,1.065796902E1
5.870602311E0,4.404699802E0,-6.628489971E0,-4.324977398E0,9.057797146E0
5.878807888E0,1.637119412E0,1.270223618E0,-2.624823093E0,3.344147766E0
5.887012658E0,-3.151258945E0,2.189447594E1,3.191023636E1,3.882733179E1
5.895217850E0,-6.034154892E0,5.280994034E1,9.754733086E0,5.404124019E1
5.903423581E0,-2.383986950E0,6.853292847E1,-1.651252747E1,7.053445429E1
5.911629080E0,-5.042830944E0,6.621083069E1,-3.050655365E0,6.647263153E1
5.919834504E0,-6.005018711E0,4.479757690E1,4.059855461E0,4.538023328E1
5.928040542E0,-7.564865112E0,2.458399582E1,1.537912250E0,2.576752236E1
5.936255657E0,-7.897656441E0,8.379597664E0,9.624053836E-1,1.155494952E1
5.944462619E0,-4.598992825E0,-3.644094467E-1,8.894500136E-1,4.698366798E0
5.952669465E0,-2.394722939E0,-3.992803574E0,-7.599484921E-2,4.656495844E0
5.960877234E0,-9.879831672E-1,-4.284539700E0,-2.996887445E0,5.321158289E0
5.969085696E0,8.108758926E-2,-3.477185249E0,-3.239414215E0,4.753019768E0
5.977320119E0,4.204586744E-1,-2.310217381E0,-1.050772786E0,2.572549959E0
5.985527811E0,-1.116303444E0,-2.494111061E0,1.032209635E0,2.920989574E0
5.993736849E0,-3.955140591E0,-3.687199593E0,1.126490831E-1,5.408444115E0
6.001944811E0,-6.761753082E0,-4.670261383E0,-9.914911985E-1,8.277421152E0
6.010152272E0,-8.753594398E0,-5.319306374E0,-2.138321400E0,1.046388329E1
6.018360619E0,-9.056588173E0,-6.475605965E0,-2.801321268E0,1.148053408E1
6.026569311E0,-7.525710583E0,-7.744397640E0,-3.091431141E0,1.123249576E1
6.034776811E0,-5.332741737E0,-8.921197891E0,-2.604994297E0,1.071503157E1
6.042984080E0,-4.060101986E0,-1.016812897E1,-1.877311826E0,1.110853611E1
6.051190426E0,-3.062756538E0,-1.091078854E1,-1.545416951E0,1.143739908E1
6.059399503E0,-2.318643093E0,-1.135951805E1,-1.423135519E0,1.168075643E1
6.067608388E0,-1.817421317E0,-1.149756432E1,-1.466231108E0,1.173229897E1
6.075816272E0,-1.730596542E0,-1.179910278E1,-1.374042034E0,1.200424018E1
6.084025580E0,-2.036780119E0,-1.221418571E1,-1.913682103E0,1.252984378E1
6.092235541E0,-2.432335854E0,-1.266140366E1,-2.505334377E0,1.313408164E1
6.100444272E0,-2.224493027E0,-1.294009399E1,-2.756554604E0,1.341614680E1
6.108651426E0,-2.125687838E0,-1.304729652E1,-2.380378962E0,1.343192836E1
6.116858887E0,-2.569386005E0,-1.299814129E1,-2.433766127E0,1.347132655E1
6.125065272E0,-2.866892815E0,-1.277641487E1,-2.358236790E0,1.330477854E1
6.133271387E0,-2.474132061E0,-1.260949993E1,-1.682964802E0,1.295967548E1
6.141503618E0,-1.770277262E0,-1.221244335E1,-6.959199905E-1,1.235969089E1
6.149710695E0,-3.493776917E-1,-1.147909260E1,2.968149185E-1,1.148824315E1
6.157917080E0,4.041127682E0,-1.051694298E1,5.873536587E0,1.270571661E1
6.166123310E0,2.246841192E0,-1.015452576E1,1.975258827E0,1.058604440E1
6.174329887E0,5.464764833E-1,-1.007741642E1,-1.212527037E0,1.016480103E1
6.182544733E0,-6.604630947E-1,-9.959326744E0,-2.129909515E0,1.020592550E1
6.190750003E0,-1.312584519E0,-9.731670380E0,-2.435028553E0,1.011719579E1
6.198956849E0,-1.779479027E0,-9.046260834E0,-2.390707970E0,9.524540161E0
6.207163079E0,-2.880600929E0,-8.117934227E0,-2.813831806E0,9.061808167E0
6.215368079E0,-4.348531246E0,-6.747657776E0,-3.863712788E0,8.908921706E0
6.223574464E0,-6.734477520E0,-4.698752880E0,-4.427408218E0,9.329169825E0
6.231780233E0,-7.913537979E0,-3.242334843E0,-3.464988470E0,9.227294494E0
6.239986425E0,-1.019544029E1,-1.708961487E0,-2.577592373E0,1.065417921E1
6.248194079E0,-1.631275368E1,1.101358986E1,-2.233240128E0,1.980889839E1
6.256400925E0,-2.753058624E1,3.166964149E1,-1.948685050E0,4.200829376E1
6.264608079E0,-1.737234497E1,4.029343414E1,-1.154097748E1,4.537128349E1
6.272815194E0,-7.405757427E0,4.132238388E1,-1.818503571E1,4.575019318E1
6.281021925E0,-1.187413788E1,3.773321533E1,-2.411994743E1,4.633101071E1
6.289226887E0,-1.496679592E1,3.208065796E1,-1.917597008E1,4.026029587E1
6.297433579E0,-1.236394310E1,2.409976959E1,-1.142508984E1,2.939725601E1
6.305665810E0,-7.784276009E0,1.731319427E1,-6.248833179E0,1.998473330E1
6.313872040E0,-4.263210773E0,1.241383171E1,-2.699774027E0,1.340025983E1
6.322078502E0,-2.656454086E0,9.438449860E0,-2.393827736E-1,9.808077700E0
6.330284464E0,4.019934654E0,5.349140167E0,2.427564621E1,2.518094863E1
6.338491963E0,4.204082966E0,1.211221695E0,4.235350037E1,4.257887228E1
6.346698579E0,-8.938386440E-1,4.013525963E0,2.310842514E1,2.347140070E1
6.354904733E0,1.357908368E0,2.474967957E0,2.697830200E1,2.712559972E1
6.363111963E0,-3.013074875E0,-1.197712898E0,2.548848534E1,2.569389074E1
6.371318810E0,-1.040248489E1,6.779443741E0,9.880173206E-1,1.245587121E1
6.379526540E0,-9.886712074E0,3.448338509E0,1.457753181E1,1.794832995E1
6.387732848E0,-1.504746675E0,1.574726105E0,1.446126175E1,1.462436721E1
6.395939963E0,3.431793690E0,4.648151398E-1,1.582840323E0,3.807708567E0
6.404146732E0,3.542975426E0,-1.444040298E0,-3.289175272E0,5.045453520E0
6.412354463E0,3.183714867E0,-3.881685734E0,-3.185304403E0,5.945560413E0
6.420562117E0,4.146734715E0,-6.359091282E0,-1.028035402E0,7.660959960E0
6.428777732E0,4.720168114E0,-8.154401779E0,5.084831715E-1,9.435719927E0
6.436985155E0,4.593518734E0,-9.097684860E0,7.543145418E-1,1.021945569E1
6.445192463E0,4.469156265E0,-9.554461479E0,9.491688013E-1,1.059065689E1
6.453399963E0,4.339938164E0,-9.796810150E0,1.208238840E0,1.078296775E1
6.461605117E0,4.417308331E0,-1.003804874E1,1.431325793E0,1.106000583E1
6.469835463E0,4.956468582E0,-1.040435314E1,1.630595207E0,1.163941518E1
6.478043232E0,7.665337086E0,-1.118673420E1,2.761707544E0,1.383934403E1
6.486250732E0,1.202495575E1,-1.225548553E1,4.620823860E0,1.778056522E1
6.494456732E0,1.324754333E1,-1.255768681E1,5.254675865E0,1.899485511E1
6.502663078E0,1.188056183E1,-1.187806416E1,1.064694285E0,1.683358938E1
6.510869809E0,9.200531006E0,-1.072630405E1,-2.061846733E0,1.428126680E1
6.519075963E0,7.321623325E0,-1.021168995E1,-3.233122349E0,1.297450808E1
6.527282732E0,5.747500896E0,-9.115288734E0,-1.719961643E0,1.091240227E1
6.535488886E0,4.549993515E0,-7.624914646E0,-2.025382996E0,9.107356402E0
6.543696463E0,3.066310406E0,-4.629245758E0,-1.888476849E0,5.865025200E0
6.551904117E0,-1.408923149E0,6.921386719E-2,-2.028859854E0,2.471057932E0
6.560111270E0,-5.940761566E0,8.023727417E0,-5.020213127E-1,9.996243047E0
6.568318040E0,-1.058521271E1,2.550362396E1,2.323223686E1,3.608626322E1
6.576525001E0,-1.002290440E1,3.496059418E1,4.787461758E0,3.668271456E1
6.584734270E0,-1.200460196E0,4.577564240E1,-1.609115982E1,4.853633655E1
6.592941463E0,5.880707741E0,5.739877319E1,-6.704364777E0,5.808743749E1
6.601148578E0,2.106476307E0,5.142720032E1,9.565263748E0,5.235158494E1
6.609356924E0,-4.071186483E-1,2.791086578E1,3.880308390E0,2.818224561E1
6.617564770E0,-3.063515663E0,1.002100182E1,1.594568729E0,1.059944598E1
6.625773539E0,-4.287242413E0,1.543488503E0,2.455776215E0,5.176257439E0
6.634007232E0,-2.936760664E0,-1.577903748E0,8.108662963E-1,3.431012618E0
6.642214539E0,-2.769163609E0,-1.141513824E0,-3.882097483E0,4.903264399E0
6.650421770E0,-3.748470783E0,-8.231582642E-1,-3.925466776E0,5.489800739E0
6.658629155E0,-3.687462330E0,-1.099282265E0,-8.064389229E-1,3.931430232E0
6.666835501E0,-4.159659386E0,-2.095970154E0,2.706832647E0,5.387281325E0
6.675050693E0,-4.897659302E0,-3.694038391E0,2.332248211E0,6.562954212E0
6.683256885E0,-5.844856739E0,-4.808519840E0,2.897750139E-1,7.574178696E0
6.691462424E0,-6.870120049E0,-5.756017685E0,-1.455464244E0,9.080124737E0
6.699668501E0,-6.670900345E0,-6.977055550E0,-3.356470585E0,1.021988798E1
6.707875654E0,-5.554905891E0,-8.353002548E0,-4.154856205E0,1.085782948E1
6.716083116E0,-4.503035069E0,-9.632257462E0,-3.787952185E0,1.128743950E1
6.724290731E0,-3.806900501E0,-1.059959698E1,-2.284708500E0,1.149190326E1
6.732499116E0,-2.891913176E0,-1.122377205E1,-8.215748072E-1,1.161943226E1
6.740706962E0,-2.233936071E0,-1.158882332E1,2.495855987E-1,1.180481212E1
6.748915923E0,-1.615782261E0,-1.169486046E1,4.991752803E-1,1.181650073E1
6.757123770E0,-1.223034143E0,-1.144751930E1,1.671510935E-1,1.151388076E1
6.765331346E0,-1.149752498E0,-1.136553478E1,-1.793915033E-1,1.142495046E1
6.773540500E0,-1.250332713E0,-1.147653198E1,-5.789104700E-1,1.155894699E1
6.781749846E0,-1.492976069E0,-1.183652592E1,-1.227051735E0,1.199324724E1
6.789958885E0,-1.347998619E0,-1.183111191E1,-1.892439961E0,1.205709908E1
6.798192846E0,-1.549633622E0,-1.180333614E1,-1.968750954E0,1.206632043E1
6.806400500E0,-1.425579071E0,-1.174596119E1,-1.743112564E0,1.195986293E1
6.814609808E0,-1.145440340E0,-1.155624008E1,-1.722831964E0,1.173996884E1
6.822819115E0,-9.480216503E-1,-1.117669964E1,-1.309903622E0,1.129306014E1
6.831030154E0,-7.123826742E-1,-1.070877266E1,-1.283102036E0,1.080886913E1
6.839239154E0,-1.298707128E-1,-1.006723309E1,-2.124855757E0,1.028985230E1
6.847447846E0,1.168612838E-1,-9.776906013E0,-2.490585327E0,1.008982473E1
6.855657231E0,-5.161586404E-1,-9.507159233E0,-2.766973019E0,9.915071160E0
6.863865923E0,-1.451526523E0,-8.996206284E0,-2.828868389E0,9.541548779E0
6.872073961E0,-1.067944288E0,-8.446036339E0,-2.192799568E0,8.791154918E0
6.880281538E0,-9.795318842E-1,-8.042730331E0,-2.085419178E0,8.366239719E0
6.888488808E0,-5.180081725E-1,-7.627017498E0,-2.278317928E0,7.976870374E0
6.896697192E0,-3.600272536E-1,-6.733804226E0,-2.098442554E0,7.062379212E0
6.904905692E0,-7.390809059E-1,-4.196051121E0,-1.976850748E0,4.696916486E0
6.913114769E0,-2.926399946E0,3.068811417E0,-9.434330463E-1,4.344132372E0
6.921333038E0,-5.557386875E0,1.219144535E1,-9.587988853E-1,1.343261642E1
6.929540923E0,-1.196747971E1,3.054811096E1,-3.343378782E0,3.297856630E1
6.937750192E0,-2.282792473E1,4.466439438E1,-5.716412544E0,5.048464762E1
6.945958846E0,-2.619424629E1,4.612149811E1,-6.026322365E0,5.338209145E1
6.954167538E0,-2.584688759E1,4.379454041E1,-3.755565405E0,5.099144672E1
6.962400615E0,-1.794452477E1,3.522264481E1,-2.350595713E0,3.960007546E1
6.970609000E0,-1.117690468E1,2.558438110E1,-9.074785709E-1,2.793398060E1
6.978817307E0,-7.055553436E0,1.576342583E1,5.514390469E-1,1.727919307E1
6.987026038E0,-3.626921177E0,8.239471436E0,1.610201359E0,9.145282673E0
6.995234423E0,-1.801342726E0,2.959562302E0,3.126405239E0,4.666717728E0
7.003443730E0,5.097811222E0,-4.687192440E0,1.969798851E1,2.087985162E1
7.011652884E0,6.748398304E0,-9.006416321E0,2.891259384E1,3.102570704E1
7.019862653E0,1.351853609E0,-5.384125710E0,1.270480347E1,1.386464385E1
7.028072961E0,1.578562260E0,-5.392056465E0,9.866278648E0,1.135383574E1
7.036283269E0,-1.032342911E-1,-1.453023815E1,6.463563538E1,6.624880254E1
7.044494230E0,-1.260501099E1,-1.539045906E1,3.349415970E1,3.895653047E1
7.052704845E0,-2.676042175E1,-9.063162804E-1,-9.847962379E0,2.852935233E1
7.060914153E0,-1.546444702E1,2.702414513E0,-9.762571335E0,1.848675107E1
7.069124038E0,1.008996487E0,4.819698334E-1,-7.779161453E0,7.859117110E0
7.077334845E0,6.132147312E0,-2.159206390E0,-1.016282654E1,1.206434607E1
7.085545884E0,6.911622524E0,-4.836579323E0,-6.885822296E0,1.088933304E1
7.093757345E0,6.684397697E0,-6.451039314E0,-2.755496502E0,9.689677073E0
7.101969576E0,6.724005699E0,-7.866448879E0,-7.506804466E-1,1.037577909E1
7.110181730E0,6.439082623E0,-8.609733582E0,3.134884834E-1,1.075581575E1
7.118393191E0,5.845368385E0,-8.687375069E0,1.668694854E0,1.060298824E1
7.126629307E0,5.769020081E0,-8.779681206E0,1.863940358E0,1.066952053E1
7.134839384E0,5.705024719E0,-8.750583649E0,3.000650883E0,1.086848319E1
7.143050960E0,8.557046890E0,-9.007121086E0,9.044551849E0,1.536734199E1
7.151260999E0,1.083634090E1,-8.808189392E0,9.426484108E0,1.684841498E1
7.159471460E0,1.047614384E1,-7.986408710E0,4.352870941E0,1.387370892E1
7.167688383E0,1.009801102E1,-7.520689011E0,1.463724613E0,1.267568852E1
7.175897037E0,1.030912018E1,-7.370774746E0,-1.420544863E0,1.275242043E1
7.184104076E0,1.010954094E1,-7.412499905E0,-3.073082924E0,1.290704503E1
7.192311037E0,9.485633850E0,-7.386600971E0,-3.916393042E0,1.264425790E1
7.200518691E0,8.300707817E0,-7.143265724E0,-4.343676090E0,1.178115094E1
7.208727268E0,7.116025925E0,-6.685562134E0,-4.823215008E0,1.089026946E1
7.216935383E0,6.456948757E0,-5.855115891E0,-4.420211792E0,9.773067156E0
7.225142537E0,6.032454491E0,-4.802295685E0,-4.161749840E0,8.762003923E0
7.233349306E0,6.092638016E0,-2.845668316E0,-4.111467838E0,7.881765915E0
7.241557998E0,6.945675850E0,3.139142990E-1,-4.781712532E0,8.438348768E0
7.249766652E0,8.232651711E0,4.598304749E0,-6.582960606E0,1.150027526E1
7.257974652E0,1.239552498E1,1.255068302E1,-9.673461914E0,2.011826407E1
7.266180883E0,3.207628250E0,3.329539490E1,2.114969444E1,3.957501453E1
7.274387998E0,-6.588123322E0,4.864012527E1,3.426191711E1,5.985936953E1
7.282595575E0,-6.265188217E0,4.669833374E1,1.891206360E1,5.077059294E1
7.290829037E0,-1.094773960E1,3.876959229E1,1.227893353E1,4.211539501E1
7.299036960E0,-1.117027950E1,2.797892189E1,7.298504829E0,3.099779649E1
7.307245614E0,-1.168586636E1,1.971805954E1,-9.269593954E-1,2.293949865E1
7.315453767E0,-8.733005524E0,1.292802906E1,-6.327587605E0,1.683560767E1
7.323663652E0,-5.051786423E0,6.990828514E0,-7.234769821E0,1.125762514E1
7.331871729E0,-3.480330944E0,1.887002945E0,-2.936405182E0,4.929093120E0
7.340080114E0,-3.341479778E0,-2.392917156E0,1.939440846E0,4.544553930E0
7.348289306E0,-2.669147730E0,-4.683256149E0,-3.685375452E-1,5.403060030E0
7.356496767E0,-2.964368343E0,-6.161545753E0,-1.481682301E0,6.996249580E0
7.364705075E0,-4.069875717E0,-6.981369972E0,-1.113675594E0,8.157431481E0
7.372913613E0,-4.383033752E0,-7.371295929E0,-4.411971569E-1,8.587295469E0
7.381121690E0,-3.176646709E0,-7.812935829E0,-1.663746834E0,8.596575139E0
7.389329844E0,-1.553588271E0,-8.416904449E0,-2.985813856E0,9.064932510E0
7.397537421E0,-1.194534540E0,-8.949175835E0,-3.632278204E0,9.731808970E0
7.405746152E0,-1.030898213E0,-9.531780243E0,-3.730812788E0,1.028768923E1
7.413964421E0,-1.179710150E0,-1.007981682E1,-3.074070215E0,1.060397712E1
7.422173613E0,-1.128211141E0,-1.018333340E1,-1.703381538E0,1.038627210E1
7.430382498E0,-1.021565557E0,-1.099628544E1,-2.276857853E0,1.127590224E1
7.438593267E0,-8.709061146E-1,-1.172833824E1,-2.568914175E0,1.203792820E1
7.446804113E0,-1.383008838E0,-1.250303459E1,-2.713519096E0,1.286863526E1
7.455040998E0,-1.715803623E0,-1.309734917E1,-3.335216045E0,1.362381016E1
7.463250113E0,-1.726853132E0,-1.334252357E1,-3.576335907E0,1.392103213E1
7.471458998E0,-1.106330276E0,-1.312458038E1,-3.852790117E0,1.372306703E1
7.479668267E0,-1.293282986E0,-1.265961456E1,-4.236918449E0,1.341230404E1
7.487876728E0,-1.336841822E0,-1.199571228E1,-3.977859020E0,1.270856489E1
7.496086113E0,-8.869871497E-1,-1.131889725E1,-3.234493732E0,1.180534332E1
7.504295151E0,-1.426631451E0,-1.121004677E1,-3.119730234E0,1.172318824E1
7.512502113E0,-1.165862322E0,-1.115779495E1,-2.157947302E0,1.142420062E1
7.520709767E0,-7.911471128E-1,-1.104667091E1,-1.507774115E0,1.117712999E1
7.528918267E0,-7.250163555E-1,-1.078335094E1,-1.619859815E0,1.092841490E1
7.537126420E0,-9.104481936E-1,-1.052363014E1,-2.071045160E0,1.076405757E1
7.545334805E0,-1.646915078E0,-1.027171993E1,-2.189761162E0,1.063088019E1
7.553543497E0,-2.810465336E0,-9.647025108E0,-1.670989752E0,1.018606968E1
7.561751959E0,-3.689264297E0,-8.987346649E0,-1.216573715E0,9.790971476E0
7.569959382E0,-3.704376459E0,-8.117609024E0,-6.564860344E-1,8.947008167E0
7.578166766E0,-3.941052914E0,-6.144230843E0,7.452712059E-1,7.337499566E0
7.586373920E0,-2.127237797E0,-3.155195236E0,3.024073124E0,4.860598305E0
7.594581113E0,-4.418713093E0,-3.813591003E-1,2.823116779E0,5.257418426E0
7.602787651E0,-5.586617470E0,5.378851891E0,3.070454836E0,8.340865382E0
7.610994266E0,-5.274737358E0,8.955611229E0,4.253428459E0,1.123020393E1
7.619211843E0,-1.013304520E1,1.489212513E1,-8.060936928E-1,1.803063457E1
7.627420959E0,-2.009220695E1,2.091839409E1,-1.167322159E1,3.126563759E1
7.635628805E0,-2.336612511E1,2.153169441E1,-2.080956650E1,3.798193945E1
7.643836728E0,-1.966383934E1,2.109244537E1,-2.135076141E1,3.588053570E1
7.652045574E0,-1.354766369E1,2.036032104E1,-2.116996384E1,3.234577613E1
7.660263035E0,-9.246356964E0,1.992898178E1,-1.846857452E1,2.870100481E1
7.668471420E0,-6.712923527E0,2.055607986E1,-1.527580738E1,2.647576350E1
7.676679305E0,-7.185713768E0,1.925007820E1,-1.093097878E1,2.327415498E1
7.684887228E0,-9.774063110E0,1.772061539E1,-6.361000538E0,2.121355339E1
7.693094458E0,-1.116879654E1,1.643242645E1,-1.645661831E0,1.993677151E1
7.701301458E0,-5.137303829E0,1.469198132E1,1.180916882E1,1.953721254E1
7.709508920E0,1.111283016E1,9.699449539E0,5.206349182E1,5.411267408E1
7.717717843E0,-4.048854828E0,1.045569420E1,3.171960258E1,3.364294807E1
7.725926150E0,-5.236558914E0,7.270613670E0,4.020890427E1,4.119513751E1
7.734134997E0,-8.829803467E0,-4.042519569E0,5.616156769E1,5.699499170E1
7.742343689E0,-1.806085396E1,5.650168419E0,2.162543774E0,1.904718994E1
7.750553073E0,-1.576586533E1,4.694062233E0,2.323498726E0,1.661310856E1
7.758762227E0,-1.424514771E0,3.116963387E0,1.620267487E1,1.656114054E1
7.766972266E0,5.768026352E0,2.706542015E0,-2.719696045E0,6.927643485E0
7.775181843E0,3.993722439E0,8.568572998E-2,-1.029514313E1,1.104296758E1
7.783416266E0,4.101249218E0,-3.494884014E0,-7.848490238E0,9.520150127E0
7.791627458E0,5.022666454E0,-6.315706730E0,-4.963931084E0,9.473961242E0
7.799838650E0,5.938763618E0,-8.222927094E0,-3.013119698E0,1.058132003E1
7.808049689E0,6.234390736E0,-9.165825844E0,-1.783473372E0,1.122767868E1
7.816259189E0,5.920611382E0,-9.587133408E0,-9.789525270E-1,1.131039850E1
7.824469727E0,5.543879032E0,-9.974171638E0,-5.934878588E-1,1.142676343E1
7.832679612E0,4.402366638E0,-1.010847282E1,1.103162766E-2,1.102552387E1
7.840889035E0,3.502673149E0,-1.025606537E1,7.777560949E-1,1.086556490E1
7.849097073E0,3.682333946E0,-1.043735027E1,1.286376595E0,1.114237985E1
7.857305419E0,4.320185661E0,-1.086781693E1,3.228305578E0,1.213241137E1
7.865512804E0,4.862512589E0,-1.124828815E1,4.827307701E0,1.317083576E1
7.873721227E0,4.746067524E0,-1.127411842E1,1.929714203E0,1.238364648E1
7.881929496E0,4.857118607E0,-1.133725929E1,-3.954647183E-1,1.234023670E1
7.890139265E0,5.297804356E0,-1.166471863E1,-2.091348648E0,1.298099113E1
7.898348419E0,5.315708637E0,-1.160722923E1,-2.612840891E0,1.303117287E1
7.906566265E0,4.937035084E0,-1.087869835E1,-2.612263441E0,1.222883124E1
7.914776265E0,4.986071587E0,-9.632811546E0,-2.711395979E0,1.118050251E1
7.922986688E0,4.956837654E0,-8.757479668E0,-3.065056324E0,1.051942298E1
7.931197650E0,5.682214260E0,-3.787385464E0,-5.417985916E-1,6.850211184E0
7.939406957E0,1.051925564E1,1.184232521E1,1.057126522E1,1.904329420E1
7.947642496E0,9.711627960E0,3.458118439E1,4.858077526E0,3.624603356E1
7.955851419E0,1.967365146E0,6.174568176E1,-7.573735714E0,6.223954703E1
7.964062073E0,-9.812430382E0,6.850768280E1,6.957846165E0,6.955571879E1
7.972272688E0,-1.125349617E1,4.977722931E1,1.955735779E1,5.465257521E1
7.980483111E0,-5.206390381E0,2.583276367E1,9.353911400E0,2.796307991E1
7.988693342E0,3.618074059E-1,1.048050022E1,1.028361678E0,1.053704500E1
7.996902034E0,2.298252106E0,1.783792496E0,-4.431360066E-1,2.942829919E0
8.005109457E0,2.974885464E0,-3.046310902E0,4.674275398E0,6.322879418E0
8.013316803E0,3.134664297E0,-3.225697994E0,3.457048416E0,5.672956157E0
8.021524457E0,3.829509616E-1,-2.074933529E0,-1.660163164E0,2.684798376E0
8.029732803E0,-2.883376122E0,-3.138474464E0,-3.996895552E0,5.842863499E0
8.037941611E0,-4.932643414E0,-4.747150898E0,-3.004579544E0,7.476223039E0
8.046151111E0,-7.026599884E0,-5.579740047E0,9.031969309E-1,9.017891640E0
8.054360726E0,-7.114423752E0,-6.313861847E0,5.474778414E-1,9.527833370E0
8.062570418E0,-5.840156555E0,-7.118049145E0,-1.052151561E0,9.267204278E0
8.070781188E0,-4.373229504E0,-8.144059181E0,-3.262377262E0,9.802751738E0
8.078991265E0,-3.201781750E0,-9.379751205E0,-3.914358377E0,1.065614098E1
8.087200226E0,-2.459807396E0,-1.047943783E1,-2.925305367E0,1.115467082E1
8.095409495E0,-1.824030042E0,-1.125183582E1,-1.550185919E0,1.150365035E1
8.103620188E0,-1.224125385E0,-1.154959869E1,-2.106879950E-1,1.161620000E1
8.111856226E0,-7.509008646E-1,-1.163373184E1,6.710498333E-1,1.167723754E1
8.120066841E0,-3.880096376E-1,-1.155702686E1,6.919909120E-1,1.158422517E1
8.128277726E0,-2.623312473E-1,-1.148793221E1,6.006740332E-1,1.150661607E1
8.136489072E0,-5.432869196E-1,-1.151385689E1,-2.398428023E-1,1.152916240E1
8.144700187E0,-1.180663824E0,-1.184393501E1,-1.113974810E0,1.195465196E1
8.152918418E0,-1.830099821E0,-1.229996014E1,-1.934176564E0,1.258488473E1
8.161128110E0,-1.391010404E0,-1.252480316E1,-2.379800797E0,1.282454896E1
8.169337764E0,-5.290791988E-1,-1.261711693E1,-2.713221073E0,1.291639009E1
8.177547764E0,-3.205902576E-1,-1.237986183E1,-2.081307173E0,1.255769074E1
8.185757072E0,-1.303416491E-1,-1.179426861E1,-1.576666474E0,1.189990076E1
8.193965456E0,1.698764563E-1,-1.128356743E1,-8.966704607E-1,1.132041385E1
8.202175379E0,5.232286453E-1,-1.088047791E1,-5.830440521E-1,1.090864373E1
8.210384687E0,6.725834608E-1,-1.056361961E1,-5.826401711E-1,1.060103285E1
8.218594764E0,6.214406490E-1,-1.019991684E1,-1.056107283E0,1.027325920E1
8.226803764E0,-2.407515049E-2,-9.494441032E0,-1.517606497E0,9.614994519E0
8.235014649E0,-1.172436714E0,-8.591545105E0,-1.865828872E0,8.869643314E0
8.243225764E0,-1.384762049E0,-7.546093464E0,-2.571408749E0,8.091553340E0
8.251436533E0,-1.706180453E0,-6.030815125E0,-2.561387300E0,6.770708066E0
8.259647341E0,-2.264885187E0,-4.011298656E0,-6.124293804E-1,4.647073441E0
8.267858456E0,-4.249861717E0,-2.935538769E0,1.016612053E-1,5.166144353E0
8.276093110E0,-6.448179722E0,-1.879147530E0,-4.435985088E-1,6.731047229E0
8.284303033E0,-8.217140198E0,-5.755386353E-1,6.499099731E-1,8.262870005E0
8.292513687E0,-1.054218102E1,1.142874241E1,2.792946100E0,1.579728716E1
8.300722879E0,-2.037441254E1,2.520997810E1,-4.595033646E0,3.273795987E1
8.308933071E0,-2.246575356E1,3.577865982E1,-1.074895859E1,4.359314960E1
8.317147841E0,-1.523751640E1,3.946559143E1,-1.600523186E1,4.523143000E1
8.325356187E0,-7.055366993E0,3.524321365E1,-1.701033020E1,3.976447718E1
8.333565456E0,-8.255798340E0,2.714376068E1,-1.349239159E1,3.141634258E1
8.341774648E0,-8.985477448E0,2.020304298E1,-8.590749741E0,2.372135603E1
8.349984110E0,-8.735970497E0,1.586752129E1,-4.705740929E0,1.871468434E1
8.358193225E0,-7.831466198E0,1.144964314E1,-2.246323586E0,1.405247880E1
8.366401879E0,-6.164420128E0,7.885828018E0,1.089333057E0,1.006841624E1
8.374610994E0,4.222961903E0,1.042762756E0,2.124754333E1,2.168821936E1
8.382820879E0,2.283901691E0,-7.494297028E-1,2.772773552E1,2.783172953E1
8.391029840E0,-5.159721851E0,3.763191223E0,9.986079216E0,1.185352757E1
8.399247494E0,-3.353490353E0,3.786157608E0,8.839624405E0,1.018429411E1
8.407457648E0,-8.811176300E0,-2.558790684E0,7.081883240E1,7.141072230E1
8.415667879E0,-1.058246326E1,-3.681493759E0,2.877151299E1,3.087623495E1
8.423877609E0,-1.712799644E1,2.820863724E-1,1.256577778E1,2.124491954E1
8.432086994E0,-1.546319199E1,2.612924576E-1,7.343086243E0,1.712014882E1
8.440323379E0,-2.478558302E0,5.558032990E-1,9.442951679E-1,2.709956075E0
8.448533879E0,4.455319405E0,3.231353760E-1,-6.204727173E0,7.645451377E0
8.456744725E0,5.065557003E0,-1.521250725E0,-7.263158798E0,8.984850986E0
8.464955802E0,5.366364956E0,-3.654134750E0,-5.419504166E0,8.457044343E0
8.473166186E0,5.474297523E0,-6.058670998E0,-2.457538128E0,8.527304456E0
8.481376801E0,5.412205696E0,-7.545415401E0,-8.000724316E-1,9.320159868E0
8.489587263E0,5.456786156E0,-8.527047157E0,-4.257926941E-1,1.013253906E1
8.497797571E0,5.677334785E0,-9.055021286E0,-4.874930382E-1,1.069874713E1
8.506007878E0,6.034245491E0,-9.454000473E0,-4.730727673E-1,1.122559760E1
8.514217994E0,5.899755478E0,-9.646161079E0,-3.100689650E-1,1.131157288E1
8.522428417E0,4.938729286E0,-9.651346207E0,4.964847565E-1,1.085292715E1
8.530637763E0,4.656595230E0,-9.748730659E0,1.866619349E0,1.096384496E1
8.538847455E0,5.211086750E0,-9.941554070E0,5.432803154E0,1.247017532E1
8.547058455E0,6.133512497E0,-1.011359596E1,7.597219467E0,1.405782851E1
8.555267532E0,6.037719727E0,-1.013263321E1,4.106215477E0,1.248940834E1
8.563477763E0,5.593929291E0,-1.021012306E1,-6.118267179E-1,1.165817266E1
8.571686647E0,5.734506607E0,-9.779186249E0,-2.080733776E0,1.152590572E1
8.579896570E0,5.560225010E0,-9.206170082E0,-2.747823477E0,1.110045961E1
8.588105340E0,4.870228291E0,-8.436850548E0,-3.287773848E0,1.028148956E1
8.596314724E0,4.697473526E0,-7.180211067E0,-3.555965424E0,9.287980329E0
8.604547224E0,4.269855976E0,-2.739582062E0,-3.685034752E0,6.270283969E0
8.612755916E0,5.637787819E0,8.410245895E0,-9.106424451E-1,1.016593120E1
8.620964532E0,6.228485107E0,3.030392075E1,4.345498562E0,3.124107868E1
8.629173609E0,-1.624969363E0,6.406156921E1,3.850088596E0,6.419772860E1
8.637381647E0,-1.022721672E1,6.882939148E1,1.065054321E1,7.039542005E1
8.645599339E0,-9.568888664E0,4.706384659E1,2.043158150E1,5.219213359E1
8.653807801E0,-5.475895882E0,2.334486198E1,9.103264809E0,2.564834199E1
8.662015916E0,-1.379854321E0,9.727829933E0,-1.468601942E0,9.934357796E0
8.670223993E0,1.464741111E0,3.646384239E0,-4.376778603E0,5.881987375E0
8.678432916E0,1.439359784E0,-1.419020653E0,-4.379822314E-1,2.068140381E0
8.686641301E0,1.262361288E0,-4.757182121E0,3.432719946E0,6.000658629E0
8.694849724E0,1.797678351E0,-4.582712650E0,-7.496721745E-1,4.979448871E0
8.703058070E0,4.330469966E-1,-3.437205791E0,-3.424503326E0,4.871256141E0
8.711266262E0,-1.708329797E0,-3.769954205E0,-4.492713928E0,6.108635186E0
8.719474531E0,-3.725468874E0,-5.196006775E0,-2.058555603E0,6.716789107E0
8.727683185E0,-5.829633236E0,-6.664976120E0,9.520213604E-1,8.905777620E0
8.735891070E0,-6.479327202E0,-7.512018204E0,-5.038994551E-1,9.933076721E0
8.744100108E0,-6.100853443E0,-7.979537010E0,-2.420509100E0,1.033209988E1
8.752309185E0,-4.821269512E0,-8.800799370E0,-4.075782299E0,1.083100691E1
8.760519147E0,-3.617333174E0,-9.786757469E0,-3.698090553E0,1.106985071E1
8.768754762E0,-2.380882978E0,-1.068431854E1,-2.568976641E0,1.124379418E1
8.776964993E0,-1.686491013E0,-1.134874535E1,-9.532454014E-1,1.151290362E1
8.785189377E0,-1.195275187E0,-1.172252083E1,-3.523100615E-1,1.178856648E1
8.793396954E0,-3.557224870E-1,-1.167637348E1,1.991465688E-3,1.168179096E1
8.801605800E0,-4.660964012E-3,-1.159156418E1,-2.041004002E-1,1.159336184E1
8.809815185E0,-2.809199095E-1,-1.168723202E1,-8.689829707E-1,1.172285970E1
8.818025300E0,-5.670602322E-1,-1.186573982E1,-1.597759008E0,1.198624932E1
8.826234877E0,-1.052136898E0,-1.239364338E1,-2.437248707E0,1.267476112E1
8.834443108E0,-8.965854645E-1,-1.267939758E1,-2.848787785E0,1.302638017E1
8.842650877E0,-4.192157984E-1,-1.237281036E1,-2.560633898E0,1.264195492E1
8.850859339E0,-1.822314262E-1,-1.215078163E1,-2.110449791E0,1.233404641E1
8.859068031E0,-2.025914192E-2,-1.176728535E1,-1.617311954E0,1.187792544E1
8.867276262E0,4.891747832E-1,-1.137513924E1,2.443523407E0,1.164490838E1
8.875484569E0,2.062942743E0,-1.034188843E1,5.812530994E0,1.204142457E1
8.883691915E0,3.203410149E0,-1.000653839E1,4.126866341E0,1.128820947E1
8.891856108E0,1.552742243E0,-9.761199951E0,1.913998127E0,1.006754299E1
8.900063915E0,-7.603417635E-1,-9.074971199E0,-1.096209526E0,9.172507683E0
8.908271646E0,-1.182673097E0,-8.150622368E0,-2.584977865E0,8.632118581E0
8.916479877E0,-1.750387073E0,-7.377654552E0,-3.492625952E0,8.348178103E0
8.924687300E0,-2.733333588E0,-6.533129692E0,-3.781168699E0,8.028084006E0
8.932919992E0,-3.786103725E0,-5.743389130E0,-4.078007221E0,7.996952108E0
8.941128530E0,-5.306300163E0,-4.891376495E0,-3.385520458E0,7.971457471E0
8.949338415E0,-6.688739777E0,-4.328636169E0,-3.039114475E0,8.527165278E0
8.957547877E0,-8.154836655E0,-3.014537811E0,-2.123766899E0,8.949814798E0
8.965756377E0,-1.340373039E1,9.072842598E0,-4.165320396E0,1.671305942E1
8.973965569E0,-2.091547585E1,2.831818008E1,-1.216631317E1,3.724776006E1
8.982173876E0,-1.291469193E1,4.167077637E1,-1.856311226E1,4.741130675E1
8.990381338E0,-8.514606953E-1,4.348523331E1,-1.976901817E1,4.777556468E1
8.998589838E0,-4.617522717E0,3.335100555E1,-1.772024345E1,3.804757700E1
9.006798838E0,-1.173809624E1,2.462904739E1,-1.167431259E1,2.967595750E1
9.015008338E0,-1.210810471E1,2.053712082E1,-6.086673737E0,2.460542884E1
9.023216030E0,-9.102600098E0,1.593945026E1,-2.596147537E0,1.853816025E1
9.031424799E0,-5.860889435E0,1.128284740E1,-2.259510756E-1,1.271627793E1
9.039634069E0,-4.420380592E0,7.947834969E0,1.869477630E0,9.284545863E0
9.047844184E0,2.064198732E0,3.471158981E0,1.526348782E1,1.578872767E1
9.056053645E0,5.022886276E0,-1.702251434E-1,3.216252136E1,3.255282082E1
9.064262953E0,-4.414712429E0,4.570811272E0,1.416508675E1,1.552519514E1
9.072472030E0,-3.989982605E0,5.822410583E0,6.406853676E0,9.532481325E0
9.080679530E0,-7.908448219E0,7.439250946E-1,5.903708649E1,5.956907384E1
9.088888530E0,-8.544028282E0,-7.190155983E-1,2.298482132E1,2.453200794E1
9.097122876E0,-1.322764397E1,1.406316757E0,1.999477386E1,2.401539660E1
9.105331607E0,-1.302921104E1,-1.015186310E-2,2.100695610E1,2.471947912E1
9.113539953E0,-5.633306503E0,5.005187988E-1,9.067908287E0,1.068698376E1
9.121746568E0,5.050179958E-1,1.210912704E0,-5.902231693E0,6.046295702E0
9.129953953E0,1.951030731E0,-9.920182228E-1,-7.160223961E0,7.487284437E0
9.138168760E0,3.436346054E0,-4.339608192E0,-3.971114159E0,6.812519441E0
9.146374799E0,4.615220070E0,-6.965390205E0,-1.986791372E0,8.588612051E0
9.154581607E0,5.676780701E0,-8.605003357E0,-5.750157833E-1,1.032485182E1
9.162789068E0,6.059617996E0,-9.420223236E0,-4.241946936E-1,1.120890348E1
9.170997337E0,5.947605610E0,-9.752793312E0,-8.273789883E-1,1.145318933E1
9.179204837E0,5.754142284E0,-9.916552544E0,-1.149868011E0,1.152260232E1
9.187412760E0,5.430250645E0,-1.001854420E1,-1.594379425E0,1.150655881E1
9.195619414E0,5.880192757E0,-1.031068993E1,-1.428836823E0,1.195527366E1
9.203828568E0,5.194289207E0,-1.030833149E1,-1.213677883E0,1.160669430E1
9.212036606E0,4.961214542E0,-1.034261417E1,-1.036846042E0,1.151774142E1
9.220245106E0,4.740234375E0,-1.037854576E1,-1.571623325E0,1.151755330E1
9.228452183E0,5.170140266E0,-1.054715633E1,-2.259843111E0,1.196159471E1
9.236659222E0,5.531952858E0,-1.034361267E1,-2.277612925E0,1.194907302E1
9.244866722E0,5.772809029E0,-1.018589592E1,-2.172078133E0,1.190780094E1
9.253075452E0,5.647897720E0,-9.687039375E0,-2.439918280E0,1.147565605E1
9.261308837E0,5.032426834E0,-8.406572342E0,-2.224942207E0,1.004719594E1
9.269517260E0,4.673083305E0,-5.776765823E0,-2.475941896E0,7.831923086E0
9.277724529E0,4.735851288E0,-1.825777531E0,-2.917429924E0,5.854327320E0
9.285933183E0,5.197624683E0,5.530121803E0,-4.575711727E0,8.861979876E0
9.294144491E0,1.074761486E1,3.027553558E1,-2.330058098E0,3.221099891E1
9.302353298E0,-3.224982023E-1,6.230300140E1,1.472811985E1,6.402097706E1
9.310560491E0,-7.979691505E0,6.886968994E1,2.564822006E1,7.392253284E1
9.318767875E0,-8.090884209E0,5.637977982E1,2.115767097E1,6.076009398E1
9.326975837E0,-9.131802559E0,3.169065666E1,1.599697971E1,3.665502554E1
9.335184029E0,-6.797680378E0,1.347512722E1,2.240365505E0,1.525800609E1
9.343392683E0,-4.229414940E0,4.574688911E0,-3.465641499E0,7.129263662E0
9.351599683E0,-2.626147032E0,-7.270278931E-1,1.166566610E0,2.964134856E0
9.359807760E0,-7.463175654E-1,-3.694627762E0,5.086627960E0,6.330959502E0
9.368015221E0,-1.946657777E0,-2.368206024E0,-9.352982044E-1,3.205098907E0
9.376222606E0,-1.907317638E0,-3.151116848E0,-6.608469009E0,7.565663263E0
9.384439221E0,-9.895646572E-2,-4.912987232E0,-7.058680534E0,8.600709669E0
9.392645913E0,-1.987045527E0,-5.925466537E0,-2.162343025E0,6.613261750E0
9.400852836E0,-4.399339199E0,-6.326758385E0,-6.839966774E-2,7.706278970E0
9.409060875E0,-5.420220375E0,-6.948884010E0,-9.533954859E-1,8.864239440E0
9.417269259E0,-6.137579918E0,-7.577709198E0,-3.474694490E0,1.035205611E1
9.425501452E0,-5.234831333E0,-8.428143501E0,-5.465448380E0,1.132732042E1
9.433709913E0,-4.723895073E0,-9.748573303E0,-5.912137508E0,1.234111972E1
9.441917913E0,-3.434322357E0,-1.087975121E1,-4.521226406E0,1.227212470E1
9.450125067E0,-2.019635201E0,-1.189923477E1,-2.055368423E0,1.224317172E1
9.458332105E0,-9.206315875E-1,-1.244738197E1,-2.389011085E-1,1.248366750E1
9.466540490E0,-7.911740541E-1,-1.270943069E1,6.921516657E-1,1.275282945E1
9.474748105E0,-1.079920053E0,-1.290563488E1,1.323240161E0,1.301816437E1
9.482953836E0,-1.406239390E0,-1.274027634E1,-1.111858368E0,1.286578328E1
9.491161336E0,-1.716873050E0,-1.286631584E1,-2.624224663E0,1.324297140E1
9.499369721E0,-1.852782965E0,-1.304986286E1,-2.631203175E0,1.344079445E1
9.507577759E0,-1.609306097E0,-1.302240658E1,-3.130333424E0,1.348969705E1
9.515784105E0,-1.378158927E0,-1.293950272E1,-3.934746742E0,1.359456820E1
9.523991682E0,-6.605521441E-1,-1.301490116E1,-3.511422157E0,1.349644646E1
9.532198490E0,-2.910203338E-1,-1.228820992E1,-2.469454288E0,1.253726446E1
9.540406105E0,-1.477971077E-1,-1.099950600E1,-1.815243244E0,1.114926384E1
9.548613682E0,2.455259085E0,-9.951236725E0,8.879957199E0,1.356130707E1
9.556821259E0,5.151848793E0,-9.442645073E0,6.860357285E0,1.275811875E1
9.565028990E0,3.822853088E0,-9.697029114E0,2.772179127E0,1.078571075E1
9.573235528E0,1.222504735E0,-9.964840889E0,-7.427263260E-2,1.003982511E1
9.581441797E0,-3.997175694E-1,-9.886821747E0,-2.249543667E0,1.014738711E1
9.589672951E0,-1.506905794E0,-9.604424477E0,-3.600385904E0,1.036718444E1
9.597878259E0,-2.370179653E0,-9.287423134E0,-4.101569176E0,1.042577814E1
9.606083566E0,-3.046225786E0,-8.708322525E0,-3.789295912E0,9.973622022E0
9.614290605E0,-4.177261829E0,-8.349369049E0,-4.035510063E0,1.017088105E1
9.622496797E0,-6.186699867E0,-7.439883709E0,-6.194891930E0,1.148929114E1
9.630713105E0,-8.251597404E0,-6.490229607E0,-7.559259415E0,1.293655066E1
9.638919182E0,-8.279946327E0,-5.571008205E0,-6.203757763E0,1.175075546E1
9.647125759E0,-5.755446911E0,-2.344861507E0,-2.692555904E0,6.772990619E0
9.655333605E0,-1.258778095E1,1.664691162E1,-6.270178318E0,2.179190290E1
9.663540874E0,-1.624041939E1,4.599254608E1,-2.333559799E1,5.407046930E1
9.671747412E0,5.088503361E-1,5.169364166E1,-2.290884209E1,5.654473064E1
9.679953528E0,-1.280401707E1,3.998733521E1,-2.224276924E1,4.751495147E1
9.688160720E0,-2.358164406E1,3.113176346E1,-1.604857254E1,4.222365822E1
9.696368528E0,-1.876133156E1,2.558381462E1,-9.373677254E0,3.308148965E1
9.704576489E0,-1.106517410E1,1.996358490E1,-4.025823593E0,2.317736084E1
9.712785528E0,-7.294196606E0,1.423713398E1,-3.063666224E-1,1.599984839E1
9.720994297E0,-3.345989704E0,8.896288872E0,5.478016376E0,1.097033574E1
9.729201412E0,1.126922703E1,-6.311302185E-1,3.261130905E1,3.450929268E1
9.737407643E0,-2.219794750E0,2.113467216E0,2.515820503E1,2.534422050E1
9.745612835E0,-8.128073692E0,5.291633606E0,1.095215321E1,1.462930716E1
9.753842835E0,-3.122410059E0,1.619205475E0,3.147048378E1,3.166642734E1
9.762045797E0,-8.826410294E0,-7.254298210E0,4.809836197E1,4.943665427E1
9.770250066E0,-1.769894028E1,5.380868912E-1,1.269980717E1,2.179052837E1
9.778454297E0,-1.704150963E1,4.709148407E-1,9.559673309E0,1.954538731E1
9.786660143E0,-9.414380074E0,-5.128974915E-1,7.948641777E0,1.233184991E1
9.794865604E0,1.965856552E-2,-5.933780670E-1,-1.248728752E0,1.382681267E0
9.803073143E0,3.817528248E0,-8.875069618E-1,-6.626384735E0,7.698711917E0
9.811280489E0,4.640569210E0,-3.433551311E0,-4.614672661E0,7.390491254E0
9.819487489E0,5.017958641E0,-5.660526752E0,-2.211992264E0,7.881267780E0
9.827694527E0,5.194061279E0,-7.535601616E0,-4.523901939E-1,9.163417549E0
9.835899527E0,5.365512371E0,-8.586677551E0,3.298959732E-1,1.013057677E1
9.844104758E0,5.503319740E0,-9.156557083E0,5.022569895E-1,1.069492066E1
9.852310950E0,5.194878578E0,-9.372262001E0,6.385661364E-1,1.073470191E1
9.860516873E0,4.811840057E0,-9.409832954E0,6.143623590E-1,1.058660484E1
9.868722604E0,4.131538868E0,-9.428483963E0,8.208663464E-1,1.032665216E1
9.876937835E0,3.857837915E0,-9.511671066E0,1.323317766E0,1.034920141E1
9.885145142E0,3.905549526E0,-9.608618736E0,2.409517765E0,1.064822271E1
9.893352450E0,4.415859222E0,-9.708170891E0,4.291949272E0,1.149648743E1
9.901559258E0,5.863389015E0,-9.930538177E0,4.548089027E0,1.239677511E1
9.909766681E0,8.010382652E0,-1.016193867E1,2.387333632E0,1.315790977E1
9.917998719E0,8.961097717E0,-1.034530163E1,-1.097828627E0,1.373068701E1
9.926207219E0,8.369557381E0,-1.022966290E1,-3.129150391E0,1.358260195E1
9.934414257E0,6.203423023E0,-9.598632812E0,-3.909335136E0,1.207887041E1
9.942620411E0,5.307487488E0,-8.526304245E0,-4.026664257E0,1.082041185E1
9.950827527E0,5.090637684E0,-6.934882164E0,-4.196537495E0,9.571734932E0
9.959034104E0,4.488286018E0,-4.213424683E0,-4.162469864E0,7.431272725E0
9.967240103E0,2.852720261E0,4.246206284E-1,-4.980023861E0,5.754906882E0
9.975445911E0,1.840193272E0,7.857843399E0,-6.197841167E0,1.017571861E1
9.983651411E0,-1.179240942E-1,3.479998398E1,1.105831051E1,3.651491507E1
9.991858488E0,-1.923890829E0,6.262547302E1,7.982447147E0,6.316146523E1
1.000006518E1,1.973401427E0,6.603043365E1,1.117574501E1,6.699858027E1
1.000827176E1,1.249719024E0,4.914864349E1,2.253483772E1,5.408299054E1
1.001647830E1,-9.129235744E-1,2.844332314E1,1.522184753E1,3.227321959E1
1.002468556E1,-2.211452127E-1,1.531893539E1,1.515517950E0,1.539530713E1
1.003289299E1,-3.022350669E-1,6.086412430E0,-3.116476297E0,6.844573530E0
1.004110037E1,-1.003404737E0,1.192387581E0,-4.289801121E0,4.564099349E0
1.004930806E1,-2.001803637E0,-2.697874546E0,4.487865567E-1,3.389270458E0
1.005751418E1,-1.651921391E0,-4.815365791E0,3.303984165E0,6.069011728E0
1.006572022E1,-1.996417761E0,-4.418987274E0,1.316996336E0,5.024700166E0
1.007392656E1,-3.584201574E0,-4.440569401E0,-4.221640587E0,7.098408749E0
1.008215768E1,-5.160743237E0,-5.867101669E0,-2.658754349E0,8.253794730E0
1.009036218E1,-6.510951519E0,-6.663713455E0,-3.467478752E-1,9.322971671E0
1.009856687E1,-7.519643784E0,-7.098969936E0,-1.144642830E0,1.040435601E1
1.010677222E1,-7.410971165E0,-7.887960434E0,-2.180056095E0,1.104060949E1
1.011497810E1,-6.203038216E0,-8.495495796E0,-3.298550129E0,1.102413556E1
1.012319437E1,-4.899385452E0,-9.227173805E0,-3.691124201E0,1.108012239E1
1.013140110E1,-3.733095169E0,-1.018615341E1,-2.939049959E0,1.123973912E1
1.013960837E1,-2.785482645E0,-1.096875572E1,-1.534993649E0,1.142053944E1
1.014781530E1,-2.157656431E0,-1.149816704E1,-3.192570806E-1,1.170321544E1
1.015602172E1,-1.755279541E0,-1.175394821E1,-1.719605923E-2,1.188430059E1
1.016423003E1,-1.532266617E0,-1.176066971E1,-2.827677429E-1,1.186343755E1
1.017243637E1,-1.584837317E0,-1.175631332E1,-4.971306324E-1,1.187306831E1
1.018064287E1,-1.829480886E0,-1.191213036E1,-1.222802877E0,1.211367396E1
1.018885041E1,-2.314526558E0,-1.228151417E1,-1.866694093E0,1.263634323E1
1.019705695E1,-2.467315912E0,-1.260635757E1,-2.524739981E0,1.309130288E1
1.020526553E1,-1.953428030E0,-1.254344368E1,-2.933400393E0,1.302914803E1
1.021347349E1,-1.390069366E0,-1.227389336E1,-3.020992279E0,1.271641244E1
1.022168083E1,-1.373431683E0,-1.218207455E1,-1.979690790E0,1.241806871E1
1.022988772E1,-1.654678583E0,-1.203468609E1,7.090249538E0,1.406567698E1
1.023809499E1,6.568034887E-1,-1.054294777E1,7.999608040E0,1.325061762E1
1.024632572E1,2.057625294E0,-1.025441360E1,3.614793062E0,1.106587317E1
1.025453376E1,1.972207427E-1,-1.032761765E1,2.327122688E-1,1.033212162E1
1.026274256E1,-1.405990839E0,-9.776558876E0,-2.094353199E0,1.009674349E1
1.027095068E1,-1.830502391E0,-9.291188240E0,-3.233472347E0,1.000661088E1
1.027915841E1,-2.829123497E0,-8.463543892E0,-4.375819683E0,9.938979468E0
1.028736645E1,-3.839161158E0,-6.973863602E0,-5.428874016E0,9.635694319E0
1.029557441E1,-3.981015682E0,-5.725751400E0,-5.594318867E0,8.940308638E0
1.030378137E1,-3.878843784E0,-4.974166870E0,-3.776832581E0,7.352022137E0
1.031198768E1,-4.068340778E0,-4.031001568E0,-3.504186153E0,6.714141116E0
1.032019560E1,-3.857293367E0,-3.076855183E0,-2.547204971E0,5.552837392E0
1.032840160E1,-4.216771603E0,-6.938486099E-1,-1.262539387E0,4.456073871E0
1.033660760E1,-7.182751656E0,4.630367279E0,-2.488040924E-1,8.549510276E0
1.034481522E1,-1.873168373E1,2.579894066E1,-1.552286339E1,3.546012694E1
1.035302318E1,-1.719963646E1,4.423524475E1,-2.474769974E1,5.352600316E1
1.036123156E1,-2.700910807E0,4.671705627E1,-2.193124580E1,5.167937508E1
1.036944833E1,-4.868438244E0,3.721112823E1,-1.868889427E1,4.192427131E1
1.037765495E1,-1.113718319E1,2.680492783E1,-1.246304131E1,3.158905513E1
1.038586122E1,-1.175638866E1,2.086572266E1,-5.714740276E0,2.462213055E1
1.039406872E1,-9.842782021E0,1.577294922E1,-8.563309908E-1,1.861181312E1
1.040227614E1,-6.856771469E0,1.069344711E1,3.024722338E0,1.305810367E1
1.041050772E1,9.024487734E-1,3.882966042E0,1.605920219E1,1.654659524E1
1.041871514E1,4.849360466E0,-1.005541801E0,2.783844185E1,2.827554165E1
1.042692268E1,-3.828376293E0,3.268989563E0,1.480197144E1,1.563461276E1
1.043512895E1,-2.805327415E0,3.990591049E0,9.324326515E0,1.052320026E1
1.044333664E1,-7.004146576E-1,1.063899994E0,2.413754845E1,2.417113379E1
1.045154506E1,-8.490312576E0,-5.310158253E0,7.775161743E1,7.839385946E1
1.045975268E1,-1.176570415E1,6.805267334E-1,1.298917961E1,1.753891952E1
1.046796029E1,-1.522590923E1,1.866168022E0,5.197240353E0,1.619636386E1
1.047616768E1,-1.320005035E1,4.927768707E-1,8.086175919E0,1.548774998E1
1.048437433E1,-6.058575153E0,-3.362436295E-1,6.348092079E0,8.781666454E0
1.049258087E1,1.058934212E0,-1.035786152E0,-1.156293154E0,1.879150998E0
1.050078745E1,2.782210588E0,-2.880705357E0,-2.981909275E0,4.993089428E0
1.050899602E1,3.673830986E0,-5.481911182E0,-9.455349445E-1,6.666514881E0
1.051712633E1,5.046916485E0,-7.693428040E0,1.685218692E0,9.354152182E0
1.052533614E1,6.032493114E0,-9.185092926E0,2.949210644E0,1.137781827E1
1.053354445E1,5.477207184E0,-9.640544891E0,1.602186918E0,1.120298653E1
1.054175152E1,4.842366695E0,-9.705492973E0,2.603631020E-1,1.084955750E1
1.054995902E1,4.486217022E0,-9.769501686E0,-8.377461433E-1,1.078290893E1
1.055816606E1,4.343988419E0,-9.844149590E0,-1.171671867E0,1.082360067E1
1.056637387E1,3.787643194E0,-9.851243019E0,-7.740740776E-1,1.058264715E1
1.057460649E1,3.481433392E0,-9.945692062E0,-3.951922655E-1,1.054482556E1
1.058281360E1,3.424239635E0,-1.011370659E1,3.024375439E-2,1.067770541E1
1.059102172E1,3.259676218E0,-1.019118118E1,4.469201565E-1,1.070912698E1
1.059922976E1,3.306279659E0,-1.027810097E1,6.932541132E-1,1.081903165E1
1.060743599E1,3.333937883E0,-1.005622387E1,1.020761728E0,1.064353019E1
1.061565164E1,4.397371769E0,-9.899894714E0,3.057125807E-1,1.083689319E1
1.062386002E1,4.799403667E0,-9.355031967E0,2.966699898E-1,1.051850330E1
1.063206879E1,4.371429920E0,-7.942878723E0,1.291204810E0,9.157834450E0
1.064027729E1,3.973551750E0,-5.787055969E0,7.504764199E-1,7.059911130E0
1.064848618E1,3.011206388E0,-2.329421520E0,1.864018083E0,4.238883337E0
1.065669537E1,1.212639809E0,4.484492302E0,4.217525482E0,6.274447203E0
1.066490529E1,2.639087915E0,1.607604599E1,4.197466373E0,1.682328041E1
1.067311522E1,6.277942657E0,4.416384125E1,2.444791794E-1,4.460848807E1
1.068132487E1,3.570910454E0,6.719483185E1,-5.408294201E-1,6.729182213E1
1.068953510E1,-2.175763845E0,6.512164307E1,1.753428268E1,6.747602102E1
1.069774614E1,2.312369823E0,4.067785645E1,1.424623775E1,4.316237192E1
1.070595452E1,1.255736947E0,1.968217087E1,4.746164322E0,2.028523604E1
1.071416383E1,-4.554210305E-1,7.359474182E0,7.725064754E-1,7.413908201E0
1.072237329E1,-8.668876290E-1,1.403772354E0,-1.023854613E-1,1.653043788E0
1.073058198E1,-1.841907501E0,-2.408383846E0,2.693739891E0,4.055757709E0
1.073881598E1,-1.401863694E0,-4.054095268E0,7.143301964E-1,4.348698413E0
1.074702491E1,-1.099303722E0,-3.938876629E0,-1.973084211E0,4.540515288E0
1.075523402E1,-1.530993700E0,-3.356945992E0,-2.628376007E0,4.530053922E0
1.076344383E1,-2.467480898E0,-4.192242146E0,-1.853260994E0,5.205567452E0
1.077165560E1,-4.415997982E0,-5.552163124E0,3.649415970E-1,7.103572052E0
1.077986672E1,-6.149209976E0,-6.305047035E0,1.039407253E-1,8.807792296E0
1.078807687E1,-7.472929955E0,-6.938028336E0,-1.628618956E0,1.032634103E1
1.079628610E1,-7.745882988E0,-7.644362926E0,-2.924580336E0,1.126890225E1
1.080449552E1,-6.324213028E0,-8.539483070E0,-3.923115253E0,1.132736840E1
1.081270464E1,-4.805733681E0,-9.506869316E0,-3.734484673E0,1.128813608E1
1.082091302E1,-3.436496735E0,-1.050864887E1,-2.278427124E0,1.128859784E1
1.082912202E1,-2.295903683E0,-1.128049660E1,-5.643776059E-1,1.152559323E1
1.083735425E1,-2.707179308E0,-1.199431515E1,1.676994562E0,1.240986408E1
1.084556206E1,-3.395967007E0,-1.225457191E1,3.367404222E0,1.315471535E1
1.085376933E1,-2.849509239E0,-1.191742134E1,1.582137585E0,1.235507158E1
1.086201545E1,-2.340970755E0,-1.174591255E1,-1.843097210E-1,1.197833777E1
1.087022260E1,-2.366949558E0,-1.182026100E1,-1.241050482E0,1.211863139E1
1.087843029E1,-2.901665211E0,-1.218885803E1,-2.256221294E0,1.273100372E1
1.088663787E1,-2.878689051E0,-1.236342812E1,-2.989491463E0,1.304140578E1
1.089484679E1,-2.398068428E0,-1.223544121E1,-3.114780903E0,1.285140513E1
1.090307979E1,-2.194442511E0,-1.213632011E1,-2.139195204E0,1.251726807E1
1.091128772E1,-1.819184184E0,-1.175610161E1,-1.282593608E0,1.196496563E1
1.091949652E1,1.672272384E-2,-1.117846298E1,4.729672909E0,1.213787956E1
1.092770656E1,1.961517453E0,-1.052746773E1,4.698506355E0,1.169406214E1
1.093591572E1,4.295397103E-1,-1.027014828E1,1.623426437E0,1.040653465E1
1.094412564E1,-7.334490418E-1,-1.025961304E1,-7.978477478E-1,1.031669367E1
1.095233441E1,-1.271449447E0,-9.877032280E0,-2.147933960E0,1.018753997E1
1.096054214E1,-1.589339256E0,-9.584468842E0,-2.517375469E0,1.003619557E1
1.096874898E1,-1.987620831E0,-8.856137276E0,-2.500745296E0,9.414644499E0
1.097695725E1,-1.937231660E0,-7.753680229E0,-2.102358580E0,8.263917666E0
1.098516533E1,-1.245575547E0,-6.721504211E0,-4.775171280E-1,6.852598041E0
1.099337445E1,-3.919214606E-1,-5.551492214E0,-2.758049965E-2,5.565377698E0
1.100158245E1,-1.200352788E0,-4.571424961E0,-9.202460051E-1,4.815145450E0
1.100979041E1,-2.332680464E0,-3.161547661E0,-1.336077213E0,4.149925792E0
1.101799925E1,-3.771921873E0,-5.908155441E-1,-2.884895802E-1,3.828796660E0
1.102620652E1,-1.467889404E1,1.822140503E1,-9.349860191E0,2.519740894E1
1.103441206E1,-3.109582138E1,4.243342590E1,-2.119655037E1,5.671718865E1
1.104261791E1,-1.841050720E1,4.667210388E1,-2.177457809E1,5.469336621E1
1.105082352E1,-1.017319012E1,4.091702271E1,-2.168245506E1,4.741123708E1
1.105902902E1,-9.002223015E0,3.073354721E1,-1.591660500E1,3.576212043E1
1.106726145E1,-8.639579773E0,2.352744675E1,-8.756314278E0,2.654912671E1
1.107546814E1,-7.932025909E0,1.874729538E1,-3.990811586E0,2.074378693E1
1.108367368E1,-7.329692841E0,1.319734287E1,1.406838596E-1,1.509682245E1
1.109187879E1,-6.399306297E0,8.402359962E0,3.366928101E0,1.108543995E1
1.110008510E1,-1.965278625E0,3.198670387E0,1.506907177E1,1.552967277E1
1.110829860E1,3.645451546E0,-2.939047813E0,3.726311874E1,3.755618907E1
1.111650494E1,-5.089620590E0,2.175249100E0,1.944296646E1,2.021546169E1
1.112471183E1,-3.895573616E0,2.747900009E0,1.486255932E1,1.560839895E1
1.113291741E1,-9.537467957E0,-1.624591351E0,5.822835159E1,5.902663400E1
1.114112398E1,-7.063551903E0,-2.134724617E0,2.045415878E1,2.174450336E1
1.114932933E1,-1.085883904E1,2.341611862E0,9.012037277E0,1.430434714E1
1.115753544E1,-1.301962280E1,1.434010506E0,1.071636486E1,1.692357645E1
1.116574344E1,-7.659204483E0,1.093423843E0,7.743404388E0,1.094620028E1
1.117395025E1,-7.744352818E-1,5.805330276E-1,1.251416206E0,1.582027536E0
1.118215783E1,1.333503842E0,-1.211169243E0,-2.901364565E0,3.415125147E0
1.119036629E1,2.416349411E0,-3.610236645E0,-1.737605572E0,4.678870187E0
1.119857398E1,3.551720619E0,-5.800836086E0,5.439972878E-2,6.802012789E0
1.120678075E1,5.425534248E0,-7.711304188E0,2.055782795E0,9.650226788E0
1.121498825E1,6.202229023E0,-8.696547508E0,2.290741920E0,1.092451747E1
1.122319579E1,6.011705399E0,-9.061331749E0,9.941302538E-1,1.091955264E1
1.123142745E1,5.481379032E0,-9.257545471E0,-3.847498894E-1,1.076548637E1
1.123963287E1,5.055879593E0,-9.242814064E0,-1.241438031E0,1.060814304E1
1.124783987E1,4.453361988E0,-9.186635017E0,-1.499402285E0,1.031866770E1
1.125604637E1,4.053554058E0,-9.213626862E0,-1.221419930E0,1.013972816E1
1.126425441E1,3.531547546E0,-9.200201035E0,-6.099673510E-1,9.873580268E0
1.127246179E1,3.171159267E0,-9.339145660E0,-3.692950010E-1,9.869765527E0
1.128066891E1,2.988745213E0,-9.265036583E0,2.196522951E-1,9.737645915E0
1.128887529E1,2.466500044E0,-9.115509987E0,3.044669628E-1,9.448219140E0
1.129708091E1,2.242100239E0,-8.478479385E0,4.737929702E-1,8.782716319E0
1.130528810E1,2.063617945E0,-7.072372913E0,-6.432664394E-2,7.367571891E0
1.131349518E1,2.073025465E0,-4.710809708E0,-3.449737430E-1,5.158310728E0
1.132170194E1,1.568591833E0,-1.511360168E0,-4.218780994E-1,2.218709316E0
1.132990987E1,3.032623529E-1,4.471546173E0,2.411816835E0,5.089553387E0
1.133811621E1,3.994093537E-1,1.531940556E1,1.119348717E1,1.897729879E1
1.134632283E1,8.107240677E0,3.548241425E1,4.664113045E0,3.669445493E1
1.135453741E1,1.559775639E1,5.247472382E1,-6.849142551E0,5.517062078E1
1.136274275E1,1.282676506E1,5.098345184E1,-1.739302158E0,5.260098322E1
1.137094898E1,4.266416550E0,4.142456818E1,1.468585014E1,4.415734767E1
1.137915421E1,1.044041157E0,2.797805023E1,1.790587234E1,3.323374161E1
1.138735979E1,1.922140837E0,1.587283039E1,7.775866508E0,1.777935516E1
1.139559079E1,1.617808342E0,7.585333824E0,4.657590389E-2,7.756079059E0
1.140379637E1,1.395536661E-1,2.467014313E0,4.335796833E-1,2.508710064E0
1.141200283E1,-7.760529518E-1,-8.318614960E-2,4.472962379E0,4.540547386E0
1.142021002E1,-8.653612733E-1,1.040225983E0,1.573400736E0,2.075213267E0
1.142841587E1,-2.424095154E0,5.745229721E-1,-3.787316322E0,4.533219483E0
1.143662268E1,-3.623346806E0,-1.406887054E0,-3.829019308E0,5.456130691E0
1.144483002E1,-5.020940304E0,-3.105828285E0,1.705186367E-1,5.906359918E0
1.145303741E1,-5.903376579E0,-4.494687557E0,7.629413605E-1,7.458830390E0
1.146124341E1,-7.275979996E0,-5.306499481E0,-2.347451448E0,9.306414452E0
1.146944883E1,-7.661314011E0,-6.560973167E0,-5.101740837E0,1.130353311E1
1.147765460E1,-6.474993706E0,-7.789069653E0,-6.983112812E0,1.230280513E1
1.148586144E1,-5.244527817E0,-9.123496056E0,-6.561223984E0,1.240132704E1
1.149406783E1,-4.119429111E0,-1.062161350E1,-4.468085766E0,1.223732651E1
1.150227556E1,-3.535784960E0,-1.182200050E1,-1.952802896E0,1.249299445E1
1.151048318E1,-3.378048897E0,-1.252956200E1,-3.202344179E-1,1.298089705E1
1.151868952E1,-4.347153664E0,-1.292629814E1,1.923812509E0,1.377272606E1
1.152689652E1,-4.871145248E0,-1.292147827E1,3.018106461E0,1.413512021E1
1.153510271E1,-4.567620754E0,-1.255323124E1,1.245587587E0,1.341634311E1
1.154330994E1,-5.181410313E0,-1.250485611E1,-1.941460848E0,1.367434493E1
1.155151810E1,-5.865303040E0,-1.279477119E1,-4.163414478E0,1.467794161E1
1.155974979E1,-5.530979633E0,-1.301643848E1,-4.493026733E0,1.483936305E1
1.156795802E1,-8.547084808E0,-1.150098038E1,-6.141786575E0,1.558995673E1
1.157616637E1,-8.937958717E0,-1.086708927E1,-5.132933617E0,1.497757466E1
1.158437452E1,-6.938178539E0,-1.065486908E1,-3.118242025E0,1.309152359E1
1.159258248E1,-3.709739685E0,-1.153036308E1,1.844739914E0,1.225212254E1
1.160080064E1,4.184328079E0,-1.237870789E1,7.898461342E0,1.526848722E1
1.160900825E1,5.424642563E0,-1.200791550E1,7.245403290E0,1.503704261E1
1.161721444E1,2.990001202E0,-1.199122143E1,3.930910826E0,1.296848327E1
1.162542033E1,2.236914635E-1,-1.169499207E1,-1.576602817E0,1.180290446E1
1.163362683E1,-1.231634974E0,-1.156948757E1,-4.341552734E0,1.241849619E1
1.164183337E1,-2.503854752E0,-1.117529011E1,-3.894386530E0,1.209638971E1
1.165004033E1,-3.417504072E0,-1.071868229E1,-3.984417439E0,1.193503525E1
1.165824733E1,-4.239622116E0,-9.965872765E0,-2.495416880E0,1.111396064E1
1.166645229E1,-4.497993469E0,-9.618045807E0,-7.760246992E-1,1.064617136E1
1.167465944E1,-6.396933079E0,-9.061597824E0,-1.279371738E0,1.116557656E1
1.168286656E1,-8.605448723E0,-8.029331207E0,-3.268914700E0,1.221514268E1
1.169107367E1,-8.296060562E0,-6.535214424E0,-2.915483713E0,1.095598894E1
1.169928160E1,-7.087901592E0,4.051202774E0,-3.101513386E0,8.733268471E0
1.170748756E1,-1.270534706E1,2.060634995E1,-8.468575478E0,2.564691546E1
1.171569356E1,-1.792667961E1,5.440479660E1,-3.220022202E1,6.571226699E1
1.172390860E1,-9.840019941E-1,5.664328766E1,-2.921462250E1,6.374107361E1
1.173211490E1,-1.368319988E1,4.478366089E1,-2.243052673E1,5.192239181E1
1.174032167E1,-2.212442017E1,3.501159286E1,-1.371675396E1,4.362855649E1
1.174852994E1,-1.689129257E1,2.605167389E1,-4.986076832E0,3.144624682E1
1.175673783E1,-1.160795498E1,1.929354858E1,5.099386573E-1,2.252211520E1
1.176494637E1,-8.415285110E0,1.348467255E1,4.206182957E0,1.644218332E1
1.177315429E1,-7.753801346E0,9.476145744E0,6.860335827E0,1.403506256E1
1.178136125E1,7.678743005E-1,2.523180008E0,3.279790115E1,3.290377468E1
1.178956940E1,3.940592289E0,-3.569918156E0,5.489174652E1,5.514867559E1
1.179777687E1,-3.230186939E0,7.851696014E-2,3.158074570E1,3.174561027E1
1.180598460E1,-6.375310421E0,-1.443154812E0,4.058087158E1,4.110394649E1
1.181419206E1,-7.986520767E0,-9.433616638E0,3.221762848E1,3.450729230E1
1.182240040E1,-1.380177212E1,6.115680695E0,-7.022154808E0,1.664935801E1
1.183060879E1,-1.643656731E1,4.890036583E0,-2.128242970E0,1.728012213E1
1.183881679E1,-1.181477547E1,2.315834999E0,8.995311737E0,1.502889365E1
1.184703306E1,1.694341898E-1,7.704830170E-2,1.182613182E1,1.182759647E1
1.185523979E1,4.144373417E0,-1.184977531E0,1.568289280E0,4.586887184E0
1.186344725E1,5.024604321E0,-3.649550915E0,-4.234576225E-1,6.224563183E0
1.187165452E1,6.411114693E0,-5.993116856E0,3.702707291E-1,8.783902416E0
1.187986279E1,6.862550735E0,-7.548631191E0,-2.961468697E-2,1.020182888E1
1.188809502E1,6.569989204E0,-8.533660889E0,-1.160986185E0,1.083217500E1
1.189630179E1,6.132844925E0,-9.265811920E0,-1.719121695E0,1.124377325E1
1.190450910E1,5.633536339E0,-9.772006035E0,-2.065722704E0,1.146717245E1
1.191271667E1,5.381766319E0,-1.031200886E1,-2.569893360E0,1.191240057E1
1.192092333E1,4.400140762E0,-1.046733379E1,-2.536419392E0,1.163442043E1
1.192913148E1,3.835716248E0,-1.059516144E1,-2.639699936E0,1.157316641E1
1.193733786E1,3.939204216E0,-1.081096745E1,-2.504968166E0,1.177578925E1
1.194554560E1,4.353182793E0,-1.098969936E1,-2.356318951E0,1.205304657E1
1.195375379E1,4.884011269E0,-1.117547798E1,-2.649632454E0,1.248060200E1
1.196196183E1,3.620840549E0,-1.081925392E1,-1.097618103E0,1.146174102E1
1.197017033E1,2.798568010E0,-1.052151394E1,5.746271014E-1,1.090249672E1
1.197837952E1,2.048657656E0,-1.029191875E1,6.891366839E-1,1.051643947E1
1.198658798E1,1.743323445E0,-9.924355507E0,3.273574114E-1,1.008162545E1
1.199479521E1,1.454283237E0,-9.458456993E0,9.372234344E-3,9.569610037E0
1.200300425E1,1.845269561E0,-8.738223076E0,-4.323959649E-1,8.941394105E0
1.201121217E1,1.965883255E0,-7.453310013E0,-6.924094558E-1,7.739247895E0
1.201941940E1,2.110740185E0,-5.169816017E0,-7.455248833E-1,5.633651492E0
1.202762571E1,1.660176039E0,-1.627121925E0,1.546469092E0,2.792002309E0
1.203583240E1,-2.752055645E0,7.570891380E0,2.184707069E1,2.328490293E1
1.204403894E1,-2.397893429E0,1.604007721E1,1.688661957E1,2.341349803E1
1.205227137E1,9.844245911E0,4.183946609E1,-2.242447615E0,4.304043067E1
1.206047829E1,3.541387939E1,6.811596680E1,-2.404096794E1,8.044809461E1
1.206871098E1,2.812467575E1,6.407420349E1,-2.210421181E1,7.338322096E1
1.207691794E1,2.628812551E0,4.279472351E1,1.336073303E1,4.490888779E1
1.208512490E1,-5.728083611E0,2.353418350E1,2.277112579E1,3.324444171E1
1.209334102E1,-7.271281242E0,9.796543121E0,2.164572525E1,2.484715697E1
1.210154760E1,-2.852620363E0,8.993148804E-3,1.023714066E1,1.062716202E1
1.210975375E1,5.472965240E0,-3.442112923E0,2.452244759E0,6.914838700E0
1.211795979E1,8.464311600E0,-3.521878719E0,4.194787502E0,1.008188687E1
1.212616402E1,3.263443708E0,-2.893608570E0,-8.586465836E0,9.630702515E0
1.213436898E1,-1.208516836E0,-4.697688103E0,3.899345398E-1,4.866295860E0
1.214257406E1,-4.779738426E0,-6.237425804E0,3.920109987E0,8.781722063E0
1.215078044E1,-8.183044434E0,-6.612418175E0,2.116098404E0,1.073145669E1
1.215898763E1,-9.480268478E0,-6.701477051E0,-8.021645546E-1,1.163738601E1
1.216719429E1,-8.676992416E0,-6.980370522E0,-2.892507792E0,1.150575384E1
1.217540186E1,-6.486882687E0,-8.167360306E0,-3.533809423E0,1.101241256E1
1.218360921E1,-5.677941799E0,-9.637780190E0,-2.458459377E0,1.145294078E1
1.219181552E1,-5.546372414E0,-1.072667217E1,-8.470855951E-1,1.210542427E1
1.220002063E1,-5.308154583E0,-1.138045406E1,3.103103936E-1,1.256135074E1
1.220822783E1,-5.137483120E0,-1.176136684E1,5.865174532E-1,1.284785918E1
1.221646071E1,-4.241276741E0,-1.191831303E1,-1.042272598E-1,1.265090815E1
1.222466863E1,-3.727791309E0,-1.203283882E1,-5.867769718E-1,1.261070757E1
1.223287798E1,-4.184908867E0,-1.218496704E1,-1.346923709E0,1.295380591E1
1.224108883E1,-4.085474968E0,-1.241304970E1,-1.704776168E0,1.317881521E1
1.224929952E1,-4.346469402E0,-1.257089996E1,-2.308770895E0,1.349999056E1
1.225750986E1,-4.412543774E0,-1.270724201E1,-2.891285419E0,1.375878169E1
1.226571763E1,-4.024850845E0,-1.313548470E1,-2.911136389E0,1.404332929E1
1.227392713E1,-5.042851448E0,-1.190820122E1,-2.601992846E0,1.319113239E1
1.228213652E1,-4.689567566E0,-1.048860550E1,-1.476631403E0,1.158375283E1
1.229034429E1,-2.998183727E0,-9.917290688E0,1.111953020E0,1.042008636E1
1.229855371E1,-6.803051233E-1,-9.714168549E0,3.515640974E0,1.035314528E1
1.230676352E1,-8.072147965E-1,-9.901900291E0,4.802186012E0,1.103450115E1
1.231497136E1,-2.007287979E0,-9.890439987E0,1.715528965E0,1.023684755E1
1.232317894E1,-2.202560902E0,-9.412245750E0,-3.413100481E0,1.025138525E1
1.233138690E1,-2.813155413E0,-8.780858994E0,-5.273772240E0,1.062214675E1
1.233960452E1,-3.336511612E0,-7.879203320E0,-6.089166641E0,1.050200481E1
1.234781233E1,-3.447060347E0,-7.691010475E0,-4.847640514E0,9.722833215E0
1.235602029E1,-4.592953682E0,-7.924653053E0,-2.253686666E0,9.432627053E0
1.236422879E1,-7.783526897E0,-6.381374359E0,-3.069063902E0,1.052256541E1
1.237243740E1,-1.064630222E1,-2.665538311E0,-3.456147671E0,1.150625057E1
1.238067121E1,-1.419393730E1,4.368141174E0,-4.392076969E0,1.548673153E1
1.238887990E1,-1.774311829E1,2.279332352E1,-1.221978855E1,3.136362663E1
1.239708967E1,-9.240106583E0,4.618439484E1,-2.382964897E1,5.278475221E1
1.240529806E1,5.029074669E0,4.577551270E1,-2.611020279E1,5.293800000E1
1.241350586E1,-1.765598178E0,3.615059662E1,-2.241176796E1,4.257076833E1
1.242171390E1,-9.662648201E0,2.885516739E1,-1.665555573E1,3.468998403E1
1.242992225E1,-1.171096611E1,2.397520447E1,-1.059893227E1,2.871052981E1
1.243812967E1,-1.024182034E1,2.107256699E1,-3.283866405E0,2.365865046E1
1.244633683E1,-9.017706871E0,1.889013100E1,1.937407851E0,2.102164683E1
1.245454394E1,-2.071689606E0,1.373094845E1,2.117354393E1,2.532093611E1
1.246275206E1,7.334140301E0,5.216968536E0,4.725790024E1,4.810733322E1
1.247095852E1,-3.052844524E0,5.554322243E0,2.722691154E1,2.795487556E1
1.247916406E1,-1.351226091E0,2.656066895E0,2.473080635E1,2.490970265E1
1.248737063E1,4.177051544E0,-4.912519455E0,4.650293732E1,4.694788372E1
1.249557882E1,-7.798768997E0,1.687908173E-1,9.241568565E0,1.209362964E1
1.250378625E1,-1.776870346E1,5.173840523E0,3.435360432E0,1.882278273E1
1.251199313E1,-1.658712959E1,4.258068085E0,1.070723152E1,2.019675268E1
1.252020044E1,-9.923901558E0,1.744595528E0,1.598084927E1,1.889219360E1
1.252840925E1,-2.949706554E0,7.789049149E-1,8.942905426E0,9.448969207E0
1.253661767E1,3.259597778E0,-9.459037781E-1,-9.040811062E-1,3.512417156E0
1.254485071E1,3.817105770E0,-3.689908028E0,-2.029725075E0,5.683792888E0
1.255305971E1,3.667134762E0,-6.270212173E0,-2.290880680E-1,7.267456185E0
1.256126825E1,3.826858521E0,-8.224606514E0,1.491023540E0,9.193048985E0
1.256947690E1,4.190330029E0,-9.162899017E0,2.875630856E0,1.047792140E1
1.257768648E1,5.124823570E0,-9.855743408E0,4.381211281E0,1.194129419E1
1.258590371E1,6.093503952E0,-1.055247879E1,5.966174126E0,1.356763917E1
1.259411232E1,5.991320610E0,-1.090950871E1,6.110055923E0,1.386528349E1
1.260232159E1,5.014393330E0,-1.084293175E1,4.654160500E0,1.282086266E1
1.261053125E1,3.317508698E0,-1.064384079E1,2.995573521E0,1.154429173E1
1.261873848E1,2.566155434E0,-1.055127144E1,2.749905109E0,1.120162760E1
1.262694713E1,2.724292278E0,-1.051865768E1,2.365551949E0,1.112024118E1
1.263515359E1,3.047595024E0,-1.056016922E1,1.148585081E0,1.105098444E1
1.264336059E1,2.791942358E0,-1.066795444E1,-1.872429848E-1,1.102883739E1
1.265156763E1,2.107039452E0,-1.061316967E1,6.829115152E-1,1.084183351E1
1.265977552E1,1.939722300E0,-1.056505013E1,1.170604467E0,1.080523584E1
1.266798509E1,2.814738750E0,-1.077951813E1,1.121982813E0,1.119730373E1
1.267619356E1,3.412275314E0,-1.082755566E1,5.207470059E-1,1.136445167E1
1.268440202E1,3.191750050E0,-1.046817207E1,-5.516214967E-1,1.095783652E1
1.269261102E1,2.446579456E0,-9.732473373E0,-6.348071098E-1,1.005533535E1
1.270081886E1,2.310543537E0,-8.864130974E0,-8.658236861E-1,9.201145582E0
1.270905344E1,2.418864250E0,-6.358668327E0,-2.373297930E0,7.205283493E0
1.271726217E1,3.663276672E0,-1.150172234E0,-4.756356239E0,6.112725809E0
1.272547113E1,6.605381012E0,1.208120728E1,-8.057964325E0,1.595360199E1
1.273368082E1,1.304185009E1,4.012351227E1,2.382097960E0,4.225707611E1
1.274189102E1,9.477430344E0,6.693795013E1,1.277934551E1,6.880277993E1
1.275010113E1,1.076830292E1,6.865499878E1,7.059453964E0,6.985199421E1
1.275830905E1,6.523484230E0,5.517139435E1,7.752088547E0,5.609397007E1
1.276651571E1,7.962110043E-1,3.436525726E1,9.254705429E0,3.559851726E1
1.277472221E1,-4.115604877E0,1.531065750E1,1.224360466E1,2.003148251E1
1.278293075E1,-2.822939873E0,3.711460114E0,6.056901455E0,7.643950610E0
1.279113809E1,-3.303182125E-1,-3.004424095E0,2.990980387E0,4.252250926E0
1.279934498E1,1.371162176E0,-5.093229771E0,-2.396593571E0,5.793508087E0
1.280755132E1,3.360260487E0,-3.626764774E0,-8.351271629E0,9.705076563E0
1.281575917E1,4.402040482E0,-2.559481621E0,-5.224617958E0,7.295583553E0
1.282396698E1,1.522389412E0,-3.483918667E0,2.260643721E0,4.423332322E0
1.283218363E1,-1.653286934E0,-5.274477482E0,3.205102444E0,6.389534574E0
1.284039148E1,-5.255334854E0,-6.060549736E0,5.990678072E-1,8.044109010E0
1.284859840E1,-6.945004463E0,-6.816254139E0,-8.564519882E-1,9.768721385E0
1.285680452E1,-7.461367130E0,-7.609981537E0,-2.219342709E0,1.088619771E1
1.286500990E1,-6.451675892E0,-8.762849808E0,-3.206779480E0,1.134438598E1
1.287324217E1,-5.428851128E0,-9.944852829E0,-2.159503937E0,1.153412240E1
1.288145021E1,-4.541395187E0,-1.070555592E1,-7.845861912E-1,1.165541819E1
1.288965675E1,-4.195818901E0,-1.116700935E1,-4.070546031E-1,1.193619234E1
1.289786532E1,-3.868001938E0,-1.165937614E1,-3.818926811E-1,1.229017222E1
1.290607352E1,-3.610703945E0,-1.184539509E1,-3.413993418E-1,1.238818475E1
1.291428105E1,-3.418509007E0,-1.195793438E1,-6.626952887E-1,1.245462017E1
1.292248909E1,-3.333622456E0,-1.184017277E1,-1.375022888E0,1.237713286E1
1.293069659E1,-3.738006592E0,-1.186341095E1,-2.208480835E0,1.263291733E1
1.293890413E1,-4.002947807E0,-1.195577621E1,-3.147401333E0,1.299501101E1
1.294710940E1,-4.132231712E0,-1.199680519E1,-3.981310368E0,1.329847758E1
1.295531598E1,-3.773434401E0,-1.208474064E1,-3.809890270E0,1.322100705E1
1.296352213E1,-3.218668938E0,-1.222931671E1,-3.003217936E0,1.299751264E1
1.297173017E1,-3.038222313E0,-1.183705902E1,-1.944527268E0,1.237448776E1
1.297993613E1,-1.524797916E0,-1.130250454E1,7.737076283E0,1.378165327E1
1.298814448E1,6.022218466E-1,-9.857279778E0,6.004057884E0,1.155756665E1
1.299635355E1,4.034086764E-1,-9.913945198E0,2.600791931E0,1.025734696E1
1.300456155E1,-8.443880081E-1,-1.018735600E1,6.160058975E-1,1.024083378E1
1.301277044E1,-1.728631496E0,-1.042420387E1,-5.006027222E-2,1.056667872E1
1.302097990E1,-1.892537236E0,-1.044627094E1,3.109376431E-1,1.062087360E1
1.302918994E1,-1.472156048E0,-1.044444275E1,-1.255167246E0,1.062210302E1
1.303742328E1,-2.109836578E0,-1.025072098E1,-4.129344940E0,1.125078578E1
1.304562921E1,-3.400400639E0,-9.574797630E0,-4.757391930E0,1.121928038E1
1.305383540E1,-9.108989716E0,-8.720294952E0,-5.464584827E0,1.374332293E1
1.306204332E1,-2.389918900E1,-3.599225521E0,-1.091020298E1,2.651713009E1
1.307025024E1,-2.697560501E1,-1.943581581E0,-1.201813221E1,2.959554488E1
1.307848452E1,-2.036760521E1,-9.544763565E-1,-7.059213161E0,2.157736911E1
1.308669132E1,-1.386042309E1,6.021633148E0,-6.679062843E-1,1.512671454E1
1.309489782E1,-1.293274021E1,2.610145569E1,-7.856174946E0,3.017053601E1
1.310310455E1,7.498754978E0,3.926117706E1,-1.880389977E1,4.417304605E1
1.311131159E1,1.490526867E1,3.622615814E1,-2.022534943E1,4.408589715E1
1.311951778E1,1.604052305E0,2.992812729E1,-2.348624611E1,3.807715251E1
1.312772275E1,-9.094841003E0,2.926437759E1,-1.992059326E1,3.655064931E1
1.313592786E1,-1.515358734E1,3.019953918E1,-1.454290676E1,3.678504470E1
1.314413467E1,-1.596920681E1,2.894992638E1,-5.152411938E0,3.346133817E1
1.315234286E1,-1.312068462E1,2.640280914E1,6.322501183E0,3.015351915E1
1.316054967E1,1.656428814E0,1.774976540E1,3.207249832E1,3.669391062E1
1.316875721E1,-1.979410648E-1,1.158106518E1,4.166777039E1,4.324769751E1
1.317696409E1,-8.783888817E0,1.236096859E1,2.335636139E1,2.784725955E1
1.318517021E1,-5.709365845E0,8.325645447E0,2.767029190E1,2.945434237E1
1.319340432E1,-1.476134014E1,-6.114492416E-1,6.804654694E1,6.963191497E1
1.320161144E1,-4.510678768E0,1.036074638E1,6.623332024E0,1.309808443E1
1.320981809E1,-1.697864723E1,6.155897141E0,2.092869186E1,2.764379993E1
1.321802290E1,-1.598601437E1,3.336800575E0,3.055197144E1,3.464260169E1
1.322622874E1,-4.592419624E0,2.137685776E0,1.879372215E1,1.946442937E1
1.323443555E1,8.892496824E-1,8.248529434E-1,-1.744174480E0,2.124450987E0
1.324264101E1,1.153076172E0,-2.812959671E0,-2.440653563E0,3.898604440E0
1.325084728E1,1.916766882E0,-5.993166447E0,-3.393826485E-1,6.301366512E0
1.325905309E1,2.478046179E0,-7.838771343E0,5.118370056E-2,8.221293621E0
1.326725828E1,3.168275356E0,-9.184329033E0,-1.207606792E-1,9.716195328E0
1.327548913E1,3.813597202E0,-9.917739868E0,-5.958106518E-1,1.064237182E1
1.328369336E1,4.318879128E0,-1.034325409E1,-1.050758839E0,1.125787352E1
1.329189782E1,4.700567245E0,-1.063492107E1,-1.684268355E0,1.174877179E1
1.330010317E1,4.849864960E0,-1.090243721E1,-2.840588093E0,1.226593934E1
1.330830774E1,3.793154716E0,-1.080295563E1,-3.347988605E0,1.192899412E1
1.331651286E1,3.755280495E0,-1.108170128E1,-3.866769791E0,1.232307362E1
1.332472582E1,5.065291405E0,-1.147120285E1,-4.816540718E0,1.343297198E1
1.333293121E1,5.783760071E0,-1.145286274E1,-5.050849915E0,1.378880090E1
1.334113613E1,4.531104088E0,-1.118795204E1,-3.711815834E0,1.262848969E1
1.334934128E1,2.936814308E0,-1.093882561E1,-1.771382451E0,1.146388153E1
1.335755432E1,1.746847391E0,-1.028600693E1,-8.980991840E-1,1.047186690E1
1.336575848E1,1.248694062E0,-9.330936432E0,-9.502204061E-1,9.461951721E0
1.337396294E1,9.288116693E-1,-8.088259697E0,-1.311378956E0,8.246353789E0
1.338216936E1,7.383677363E-1,-6.562188625E0,-1.684256554E0,6.815000118E0
1.339037540E1,-4.235260487E-1,-2.181778431E0,-2.483455181E0,3.332728773E0
1.339858124E1,-1.334030271E0,3.258754730E0,-2.279002905E0,4.194397858E0
1.340678540E1,-3.214584291E-1,1.299005985E1,6.080715656E-1,1.300825667E1
1.341499121E1,8.232350349E0,3.852867889E1,3.436501265E0,3.954794850E1
1.342319609E1,8.844858170E0,6.048652267E1,3.024594879E1,6.820314039E1
1.343140074E1,1.533745003E1,5.057258224E1,6.013530731E0,5.318821298E1
1.343963086E1,9.979886055E0,3.706447601E1,-5.713182449E0,3.880739571E1
1.344783486E1,-3.297505856E0,2.774917221E1,7.536152601E-1,2.795457099E1
1.345603813E1,-1.580424500E1,1.829154205E1,1.877626991E1,3.060887098E1
1.346424298E1,-1.036129665E1,8.315627098E0,1.349640560E1,1.893829682E1
1.347244840E1,2.514568090E0,4.164171219E-1,4.756479263E0,5.396346068E0
1.348065632E1,8.145530701E0,-1.415095806E0,-1.631976366E0,8.427070274E0
1.348886336E1,7.069611549E0,-5.940065384E-1,-6.272849083E0,9.469999305E0
1.349707082E1,6.530522346E0,-1.436598778E0,-3.781722784E0,7.681989676E0
1.350527805E1,2.440756559E0,-2.039184093E0,-4.463434219E-3,3.180500632E0
1.351348532E1,-2.436250448E0,-2.979090214E0,9.277626276E-1,3.958666220E0
1.352170109E1,-5.288596153E0,-3.950596809E0,-7.112824917E-1,6.639456846E0
1.352990848E1,-6.437092304E0,-5.349468708E0,-2.204648256E0,8.655255440E0
1.353811732E1,-6.421711922E0,-6.941948414E0,-2.580072880E0,9.802336857E0
1.354632728E1,-5.746460915E0,-8.286749840E0,-3.182429790E0,1.057449267E1
1.355453386E1,-5.099722385E0,-9.594426155E0,-3.003152370E0,1.127293688E1
1.356274017E1,-4.728015900E0,-1.072581768E1,-2.293511868E0,1.194393134E1
1.357095447E1,-4.454251289E0,-1.138028145E1,-1.405058503E0,1.230143690E1
1.357916040E1,-4.151152611E0,-1.173763180E1,-6.741185784E-1,1.246829997E1
1.358736651E1,-3.929785252E0,-1.180340004E1,-3.390542865E-1,1.244501597E1
1.359557459E1,-3.846136093E0,-1.188938713E1,-5.626513958E-1,1.250867162E1
