"Time (s)","Linear Acceleration x (m/s^2)","Linear Acceleration y (m/s^2)","Linear Acceleration z (m/s^2)","Absolute acceleration (m/s^2)"
7.116777000E-3,3.454098701E-1,-2.653198242E-1,-2.766722143E-1,5.159942845E-1
1.532670000E-2,4.473586082E-1,-3.046350479E-1,-2.889249921E-1,6.135225243E-1
2.353577700E-2,5.073900223E-1,-2.634115219E-1,-2.362385392E-1,6.185781373E-1
3.177635300E-2,6.089849472E-1,-2.309694290E-1,-1.111228615E-1,6.607252329E-1
3.998458400E-2,6.447119713E-1,-2.529230118E-1,1.071138680E-1,7.007831023E-1
4.822412300E-2,5.388669968E-1,-2.843036652E-1,6.311288476E-2,6.125271018E-1
5.646389200E-2,4.737720490E-1,-4.066867828E-1,-1.379980147E-1,6.394509721E-1
6.467143000E-2,4.187374115E-1,-5.651826859E-1,-1.410342455E-1,7.174002694E-1
7.291196900E-2,3.009757996E-1,-6.911134720E-1,-8.458821476E-2,7.585376913E-1
8.112054600E-2,2.374982834E-1,-7.651443481E-1,9.032280743E-2,8.062316774E-1
8.936119900E-2,2.636828423E-1,-8.492670059E-1,6.339959800E-2,8.915170204E-1
9.759073800E-2,2.792139053E-1,-9.675512314E-1,3.355038166E-2,1.007591891E0
1.058293920E-1,2.980556488E-1,-1.071914673E0,-1.309014857E-2,1.112658792E0
1.140706610E-1,3.532223701E-1,-1.090302467E0,6.695404649E-3,1.146110964E0
1.222798920E-1,4.251384735E-1,-1.060824394E0,7.291546464E-2,1.145167142E0
1.305213530E-1,4.702067375E-1,-9.808039665E-1,2.478974164E-1,1.115582326E0
1.387493910E-1,6.932606697E-1,-8.352980614E-1,4.994142056E-1,1.194883993E0
1.469564680E-1,7.946648598E-1,-5.594463348E-1,8.012419939E-1,1.259548004E0
1.551965070E-1,9.448390007E-1,-5.474987030E-1,8.510093689E-1,1.384446645E0
1.634035070E-1,1.079144955E0,-6.196241379E-1,5.451085567E-1,1.358540115E0
1.716248910E-1,1.121212482E0,-4.671134949E-1,4.064569473E-1,1.280827739E0
1.798323530E-1,1.387907028E0,-3.717346191E-1,2.894974649E-1,1.465701650E0
1.880416220E-1,1.683633804E0,-3.614168167E-1,5.721957982E-2,1.722939054E0
1.962493910E-1,1.962652206E0,-3.115520477E-1,-1.780774891E-1,1.995189203E0
2.044571990E-1,2.299355984E0,-2.605295181E-1,-1.819174886E-1,2.321208207E0
2.126667370E-1,2.441391468E0,-2.568922043E-1,-3.271020949E-2,2.455087751E0
2.208746220E-1,2.456893921E0,-6.937646866E-1,2.877998948E-1,2.569137201E0
2.290847760E-1,2.602391243E0,-9.416222572E-1,1.453661472E-1,2.771321702E0
2.373274680E-1,2.715478420E0,-8.821892738E-1,-3.882786632E-2,2.855448926E0
2.455396220E-1,2.738777161E0,-6.353454590E-1,-6.607469916E-2,2.812282001E0
2.537837760E-1,2.656269073E0,-4.959135056E-1,-1.362036169E-1,2.705595502E0
2.620175060E-1,2.741439819E0,-6.053485870E-1,-1.854191124E-1,2.813595465E0
2.702256990E-1,2.268345833E0,-7.478380203E-1,-2.287098467E-1,2.399367149E0
2.784671220E-1,1.634824276E0,-7.787036896E-1,-9.732556343E-2,1.813422762E0
2.866760450E-1,1.221945286E0,-8.119564056E-1,1.622937620E-1,1.476063261E0
2.949176220E-1,1.083932877E0,-9.932956696E-1,8.078629971E-1,1.677554586E0
3.031785830E-1,8.699092865E-1,-8.792095184E-1,1.442128897E0,1.899865074E0
3.114144680E-1,9.562246799E-1,-7.058563232E-1,1.754738927E0,2.119364879E0
3.196233140E-1,1.545917034E0,-1.138687134E0,2.121239185E0,2.861140253E0
3.278588520E-1,1.541854143E0,-1.662669182E0,2.104922533E0,3.093942772E0
3.360830830E-1,1.058691740E0,-2.341949940E0,2.385733366E0,3.506747983E0
3.442925060E-1,7.165212631E-1,-2.859327316E0,2.025106192E0,3.576340379E0
3.525526980E-1,3.548126221E-1,-3.336117268E0,1.429060817E0,3.646612845E0
3.607933140E-1,2.029552460E-1,-3.827754021E0,1.200775504E0,4.016808868E0
3.690210830E-1,6.160449982E-2,-3.452465534E0,1.365930319E0,3.713364918E0
3.772610060E-1,9.465286732E-1,-3.344415665E0,2.335419655E0,4.187507329E0
3.854678910E-1,2.053406477E0,-3.614219666E0,2.531016827E0,4.866734853E0
3.936961980E-1,3.072319984E0,-4.053336620E0,3.224058390E0,6.021896740E0
4.019382750E-1,3.752837896E0,-3.971815586E0,3.243431807E0,6.354444209E0
4.101733520E-1,3.741564035E0,-3.675175190E0,2.233162642E0,5.700283282E0
4.183808520E-1,2.677119255E0,-2.765015125E0,2.021357775E0,4.347201790E0
4.266118130E-1,2.115999460E0,-1.793168068E0,1.876377344E0,3.348685917E0
4.348450830E-1,2.373599052E0,-1.397734642E0,2.684575558E0,3.846372384E0
4.430847750E-1,2.701654911E0,-1.189657211E0,3.691678762E0,4.726808186E0
4.513184290E-1,2.174266815E0,-2.929277420E-1,4.039474487E0,4.596802908E0
4.595586210E-1,1.180064678E0,8.621444702E-1,4.683736801E0,4.906448426E0
4.677880060E-1,2.883806229E-1,1.294402122E0,4.837683678E0,5.016156258E0
4.760141590E-1,7.910909653E-1,1.226855278E0,2.552054882E0,2.940065120E0
4.842540820E-1,1.853973389E0,1.695419312E0,1.024639368E0,2.713217611E0
4.924601590E-1,2.695598602E0,2.541231155E0,6.256562471E-1,3.757067121E0
5.006987750E-1,3.161066532E0,4.382967949E0,1.957291603E0,5.747498593E0
5.089052360E-1,2.017927170E0,9.066921234E0,2.556293964E0,9.634092047E0
5.171334670E-1,6.541399479E0,8.926424026E0,1.896944761E0,1.122806094E1
5.253419280E-1,1.009226608E1,6.081639290E0,1.363966703E0,1.186172737E1
5.335700050E-1,1.166667843E1,7.001319885E0,1.293488264E0,1.366758858E1
5.418101210E-1,1.324884224E1,9.914075851E0,5.351924896E-1,1.655618168E1
5.500508130E-1,9.121544838E0,7.963587761E0,1.432742834E0,1.219319738E1
5.582788900E-1,6.912884235E0,5.989621162E0,8.347067833E-1,9.184784458E0
5.664870820E-1,4.977148533E0,4.798155785E0,5.229718685E-1,6.933094982E0
5.747131980E-1,3.534888268E0,3.996412754E0,3.737013340E-1,5.348495363E0
5.829531590E-1,2.577505589E0,3.977210045E0,3.637573719E-1,4.753320337E0
5.911827740E-1,3.468502045E0,2.501352787E0,1.960947514E-1,4.280855680E0
5.994203900E-1,3.486052513E0,2.583628178E0,2.040400505E-1,4.343884095E0
6.076606970E-1,3.142166615E0,2.849835396E0,2.216229439E-1,4.247809971E0
6.158873510E-1,2.194342613E0,2.550554276E0,-1.769089699E-1,3.369237807E0
6.241271590E-1,1.785917282E0,1.607830048E0,4.770278931E-3,2.403048222E0
6.323542740E-1,6.956419945E-1,2.313873291E0,3.012778759E-1,2.434891322E0
6.405803900E-1,3.985707283E0,3.975937366E0,-1.447788239E0,5.812919342E0
6.487853900E-1,2.621582985E0,-1.954516888E0,-1.628522158E0,3.653069672E0
6.570111970E-1,-2.655050516E0,-2.845538616E0,-1.865195751E0,4.315708337E0
6.652502740E-1,-4.368786812E0,-5.163915634E0,-2.653679848E0,7.265971347E0
6.734561970E-1,-4.749346256E0,-6.567440510E0,-3.404453516E0,8.790783154E0
6.816831970E-1,-6.461432457E0,-7.821938992E0,-3.431844473E0,1.071029390E1
6.899228120E-1,-7.156814575E0,-9.700818062E0,-3.351680279E0,1.251237894E1
6.981293120E-1,-6.742252827E0,-1.066233349E1,-3.256305218E0,1.302869342E1
7.063503510E-1,-6.485302925E0,-1.043477440E1,-3.030841589E0,1.265423532E1
7.145565820E-1,-5.923311234E0,-1.025696564E1,-3.276142359E0,1.228918503E1
7.227840050E-1,-4.975028038E0,-9.821691513E0,-3.247276306E0,1.147873388E1
7.310231970E-1,-4.169878483E0,-9.286994934E0,-2.975825787E0,1.060621047E1
7.392489280E-1,-2.679436922E0,-9.610985756E0,-2.885912895E0,1.038647788E1
7.474551970E-1,-4.512697220E0,-9.005575180E0,-1.061887741E0,1.012879194E1
7.556826580E-1,-4.940671921E0,-9.307524681E0,-1.353584528E0,1.062414447E1
7.639080040E-1,-6.366672516E0,-9.641262054E0,-1.772530794E0,1.168889723E1
7.721478120E-1,-6.925355911E0,-9.717988968E0,-2.602725744E0,1.221368271E1
7.803754660E-1,-6.591094971E0,-9.463937759E0,-3.997863531E0,1.220621004E1
7.886148890E-1,-6.748237610E0,-7.920094967E0,-6.935039520E0,1.250445474E1
7.968739660E-1,-8.168075562E0,-6.496596336E0,-6.107055664E0,1.209211938E1
8.051000430E-1,-1.028089142E1,-4.122083187E0,-1.449814558E0,1.117095611E1
8.133076970E-1,-6.326023102E0,-1.551438332E0,-3.055109978E-1,6.520649212E0
8.215361580E-1,3.045767784E0,1.001976776E1,-1.890678525E0,1.064176267E1
8.297779660E-1,1.549499321E1,1.616325760E1,-8.224155426E0,2.385335287E1
8.379875430E-1,1.307809544E1,1.910469055E1,7.731346130E0,2.440900437E1
8.462483500E-1,8.576414108E0,1.340729713E1,7.341774940E0,1.752746858E1
8.544567350E-1,1.345683813E0,9.234436989E0,5.719041824E-2,9.332146707E0
8.626843890E-1,-2.914904833E0,6.846783638E0,-2.044227362E0,7.717122642E0
8.709067350E-1,-5.010038376E0,4.907188416E0,-1.669758797E0,7.208958116E0
8.791132350E-1,-7.834284782E0,4.057435989E0,-1.096283674E0,8.890480457E0
8.873411190E-1,-9.270806313E0,5.240599632E0,-3.177413464E0,1.111340139E1
8.955464660E-1,-8.152586937E0,7.583638191E0,-5.506537437E0,1.242168252E1
9.037534270E-1,-4.916205406E0,9.382773399E0,-4.225265980E0,1.140431431E1
9.119593890E-1,-1.222304583E0,1.030266094E1,-1.526186824E0,1.048656747E1
9.201960420E-1,1.563906074E0,1.158108616E1,1.366578817E0,1.176583599E1
9.284004270E-1,4.093400955E0,1.129483414E1,3.621601582E0,1.254771723E1
9.366051960E-1,4.928265572E0,1.004605484E1,4.326031685E0,1.199689833E1
9.448098880E-1,4.548604488E0,8.447771072E0,3.182985783E0,1.010871097E1
9.530184270E-1,3.905102491E0,6.789569855E0,1.303456187E0,7.940219286E0
9.612254650E-1,3.209262133E0,5.531778336E0,1.417061687E-1,6.396875458E0
9.694326580E-1,2.844493866E0,5.465620995E0,-1.295976996E0,6.296325483E0
9.776418110E-1,2.920100689E0,6.252154350E0,2.989696741E0,7.520286474E0
9.858491960E-1,6.469910145E0,5.585458755E0,7.521674156E0,1.138563432E1
9.940555810E-1,7.196111202E0,5.161098480E0,9.140583038E0,1.272679112E1
1.002262273E0,4.619231224E0,4.790476799E0,7.041170120E0,9.688345665E0
1.010467042E0,2.925015450E0,4.190858841E0,4.091191769E0,6.546515355E0
1.018671888E0,3.642470837E0,1.230671883E0,3.082175970E0,4.927672451E0
1.026878773E0,4.700743198E0,-2.818478584E0,3.251623869E0,6.372900904E0
1.035084619E0,3.421699524E0,-4.293730736E0,3.468739033E0,6.494328429E0
1.043331273E0,3.931085348E0,-5.235187531E0,2.946804047E0,7.179434141E0
1.051538503E0,4.175193787E0,-6.355786800E0,2.131398439E0,7.897539384E0
1.059746773E0,4.222100735E0,-7.666489601E0,9.866994619E-1,8.807654242E0
1.067954773E0,3.303671598E0,-9.273378372E0,-7.492473125E-1,9.872748553E0
1.076163388E0,2.997681379E0,-1.013852596E1,1.389206171E0,1.066328730E1
1.084403119E0,2.784142494E0,-1.031563473E1,1.215489030E0,1.075365904E1
1.092642619E0,2.288053751E0,-1.074890900E1,1.704726696E0,1.112116575E1
1.100851619E0,1.663033009E0,-1.077918434E1,1.850406289E0,1.106257191E1
1.109059349E0,1.071381569E0,-1.095215321E1,1.408343911E0,1.109418545E1
1.117276580E0,7.930913568E-1,-1.125797081E1,5.598961115E-1,1.129975152E1
1.125486695E0,8.609778881E-1,-1.174204731E1,-1.393006295E-1,1.177439436E1
1.133696195E0,9.829890132E-1,-1.226926041E1,-9.826463461E-1,1.234773713E1
1.141906965E0,8.457575440E-1,-1.239380264E1,-1.963778973E0,1.257688664E1
1.150117888E0,2.723460495E-1,-1.221458435E1,-3.387761593E0,1.267861080E1
1.158328195E0,-9.728020430E-1,-1.180850792E1,-4.133617401E0,1.254886433E1
1.166537926E0,-3.346458435E0,-1.030987740E1,-4.415675163E0,1.170429593E1
1.174747349E0,-4.522181034E0,-9.103072166E0,-5.564982414E0,1.158814366E1
1.182957541E0,-5.070074081E0,-7.929765701E0,-6.565463543E0,1.147571988E1
1.191166849E0,-5.770733356E0,-6.340293884E0,-5.616916656E0,1.024941182E1
1.199375580E0,-6.852433205E0,-9.400615692E-1,1.272094917E1,1.447971355E1
1.207584734E0,-6.255193949E-1,2.822798920E1,1.729832458E1,3.311257589E1
1.215793887E0,1.579839420E1,5.299406815E1,1.585413170E1,5.752663739E1
1.224000695E0,2.780701065E1,5.085390091E1,1.020017529E1,5.885059605E1
1.232208503E0,1.904807854E1,4.632128906E1,4.866140366E0,5.032067605E1
1.240416464E0,4.842243195E0,2.922916412E1,3.643392324E0,2.985072298E1
1.248656003E0,2.082281590E0,1.491497993E1,1.412595034E0,1.512573793E1
1.256864195E0,4.266029358E0,8.257151604E0,1.924049854E-1,9.296051784E0
1.265071310E0,6.193320274E0,5.999184608E0,2.295351028E-1,8.625550322E0
1.273278656E0,6.662075520E0,5.859375000E0,1.257086039E0,8.960791869E0
1.281486272E0,5.931888103E0,5.881017685E0,8.206949234E-1,8.393283365E0
1.289735502E0,4.412127018E0,4.876914978E0,-1.029969215E0,6.656726005E0
1.297943310E0,3.342374325E0,2.629402637E0,-3.197131157E0,5.320420283E0
1.306151272E0,1.915064335E0,-6.854329109E-1,-5.801807404E0,6.148028857E0
1.314360695E0,-4.346783161E-1,-3.331699848E0,-6.525959492E0,7.340116920E0
1.322568964E0,-3.120463848E0,-5.114480972E0,-4.633664131E0,7.574038125E0
1.330775733E0,-5.292961597E0,-6.609750271E0,-1.871768951E0,8.672240779E0
1.339012925E0,-6.975111008E0,-7.878831863E0,-1.509054422E0,1.063040029E1
1.347220118E0,-7.667620659E0,-8.967315674E0,-2.742038488E0,1.211296545E1
1.355448964E0,-7.211585045E0,-1.021469116E1,-4.395545483E0,1.325396901E1
1.363656848E0,-5.959977627E0,-1.117667961E1,-6.110551834E0,1.406336888E1
1.371865502E0,-4.747317314E0,-1.157051945E1,-7.405311584E0,1.453453066E1
1.380073156E0,-4.994063854E0,-1.162789917E1,-7.880196571E0,1.490792443E1
1.388279810E0,-6.568878174E0,-1.143131447E1,-6.944866180E0,1.490155285E1
1.396486579E0,-7.949654102E0,-1.142182350E1,-6.100123882E0,1.519429379E1
1.404726233E0,-9.720648766E0,-1.156264496E1,-6.083710670E0,1.628487969E1
1.412955194E0,-1.291566467E1,-1.187040806E1,-6.857830048E0,1.883482982E1
1.421182425E0,-1.614980698E1,-1.186886501E1,-6.487592697E0,2.106596974E1
1.429420040E0,-1.870884514E1,-1.231022167E1,-5.277418137E0,2.300898925E1
1.437645540E0,-1.949031448E1,-1.218349361E1,-1.221888304E0,2.301744743E1
1.445851540E0,-1.367360783E1,-1.202552986E1,-2.374600887E0,1.836354129E1
1.454090925E0,-6.311898232E0,-9.753727913E0,-1.256525278E0,1.168563748E1
1.462319694E0,-2.528040171E0,-7.606668949E0,3.291520119E0,8.665246927E0
1.470561233E0,-8.413197994E-1,-6.033903599E0,3.588784933E0,7.070727610E0
1.478790079E0,-9.518003464E-2,-5.420066833E0,-1.234222651E0,5.559630318E0
1.487031002E0,-4.328868389E-1,-5.100677490E0,-4.904230118E0,7.089130759E0
1.495238079E0,-2.969331503E0,-3.686093807E0,-8.124205589E0,9.402496136E0
1.503446194E0,-2.381212234E0,-8.111648560E-1,-1.148287010E1,1.175518889E1
1.511685617E0,6.180815697E-1,2.671171188E0,-1.380135918E1,1.407105879E1
1.519913155E0,5.512271881E0,1.179746914E1,-2.073709106E1,2.448657520E1
1.528152578E0,1.345734787E1,1.687676620E1,-2.395433044E1,3.224492823E1
1.536365848E0,1.197495747E1,2.007998276E1,2.376084805E0,2.350002325E1
1.544592848E0,-3.557208538E0,2.386554337E1,1.928268242E1,3.088753363E1
1.552801194E0,-5.372899532E0,1.470722294E1,1.424601364E1,2.116882993E1
1.561027925E0,1.030136108E0,9.033828735E0,1.768118620E0,9.262693209E0
1.569248117E0,3.015347242E0,8.367445946E0,-5.822247505E0,1.063038271E1
1.577476809E0,3.479027033E0,7.819084167E0,-6.754970551E0,1.090281310E1
1.585732732E0,2.816746712E0,7.640699387E0,-4.866311073E0,9.486586985E0
1.593972117E0,3.469471455E0,7.531685829E0,-1.593971252E0,8.444185453E0
1.602198309E0,5.348011494E0,8.617800713E0,2.113182545E0,1.036017647E1
1.610420424E0,7.626289368E0,1.010888481E1,2.700579405E0,1.294770137E1
1.618658847E0,8.493706703E0,1.120549202E1,1.752147913E0,1.416954930E1
1.626865578E0,8.268335342E0,1.151004982E1,3.844189644E-2,1.417208855E1
1.635105578E0,8.636260033E0,1.061811066E1,-5.369558334E-1,1.369735678E1
1.643331809E0,8.581122398E0,8.772505760E0,6.927161813E-1,1.229115026E1
1.651540540E0,7.295308113E0,1.102295494E1,4.025771141E0,1.381788296E1
1.659747232E0,-3.181103170E-1,1.157340336E1,1.127322674E1,1.615953281E1
1.667975001E0,-6.104036808E0,9.923017502E0,1.198822212E1,1.671654903E1
1.676215116E0,-4.195752621E0,9.487913132E0,8.536728859E0,1.343505025E1
1.684441616E0,1.123328924E0,7.096431732E0,5.365850449E0,8.967360941E0
1.692680462E0,3.543008327E0,1.736738205E0,1.878422737E0,4.370084619E0
1.700887039E0,2.356371403E0,-3.381795406E0,8.076866269E-1,4.200164764E0
1.709112655E0,2.576000690E0,-7.135869026E0,3.566468716E0,8.383084481E0
1.717319616E0,3.333868027E0,-9.371028900E0,4.850165367E0,1.106593705E1
1.725527232E0,5.557337761E0,-1.119303417E1,2.472869396E0,1.273903843E1
1.733768962E0,6.833525658E0,-1.168022823E1,2.201762199E0,1.371030858E1
1.742001308E0,7.671643257E0,-1.126808548E1,9.799642563E-1,1.366690128E1
1.750231578E0,6.823524952E0,-1.101038933E1,1.185770988E0,1.300750625E1
1.758473270E0,4.906739235E0,-1.075133705E1,-1.535961628E-1,1.181909176E1
1.766703578E0,3.964886665E0,-1.145040894E1,-3.438499868E-1,1.212231100E1
1.774946539E0,3.807392836E0,-1.154199028E1,-9.079403877E-1,1.218762223E1
1.783187693E0,3.659039021E0,-1.206629181E1,-3.944407701E-1,1.261505244E1
1.791415770E0,3.584164619E0,-1.277702618E1,1.745549440E-1,1.327136404E1
1.799621270E0,3.309081078E0,-1.330001736E1,4.504754543E-1,1.371289201E1
1.807847539E0,2.105301380E0,-1.334949398E1,9.502881765E-2,1.351481831E1
1.816087077E0,9.343004227E-1,-1.299280930E1,-1.705764413E0,1.313756610E1
1.824295500E0,3.394717574E-1,-1.225775146E1,-4.074227810E0,1.292157283E1
1.832533231E0,-1.143230796E0,-1.068609238E1,-4.814899445E0,1.177636632E1
1.840774539E0,-2.101845264E0,-9.451331139E0,-4.548657417E0,1.069746223E1
1.849001385E0,-1.992995381E0,-8.380407333E0,-5.058612823E0,9.989635697E0
1.857241770E0,-2.149463654E0,-6.824226379E0,-5.627286911E0,9.102561049E0
1.865449039E0,-2.690216780E0,-2.927034378E0,-3.539088249E0,5.322587924E0
1.873676500E0,-5.515574455E0,1.026842213E1,1.007454872E1,1.540644626E1
1.881883654E0,-1.788113832E0,4.391410446E1,1.583309841E1,4.671544634E1
1.890109693E0,2.565167427E1,5.860152435E1,1.989601326E1,6.699252490E1
1.898348077E0,2.493923759E1,5.556430054E1,7.441009521E0,6.135736051E1
1.906585769E0,1.133150101E1,4.596068573E1,4.116507530E0,4.751560988E1
1.914813269E0,1.541359186E0,3.183466148E1,5.476021290E0,3.233895900E1
1.923052577E0,-1.867603064E0,1.618592453E1,9.040150642E-1,1.631837422E1
1.931258692E0,2.636914253E-1,6.868378639E0,-1.306567192E0,6.996518858E0
1.939497346E0,2.093497753E0,3.275156975E0,-6.929280758E-1,3.948358567E0
1.947735231E0,2.720351696E0,2.766910553E0,-6.493463516E-1,3.934178192E0
1.955961423E0,2.111595154E0,3.141680717E0,-7.404165268E-1,3.857098451E0
1.964201038E0,1.672231674E0,2.517881393E0,-3.110985756E-1,3.038563445E0
1.972427961E0,7.918059826E-1,6.531019211E-1,-2.395838737E0,2.606442420E0
1.980635308E0,-1.892088056E0,-1.873840809E0,-6.527828217E0,7.050093461E0
1.988842384E0,-4.250838280E0,-4.365300179E0,-8.254688263E0,1.025989035E1
1.997069731E0,-6.244600296E0,-6.233385086E0,-8.341324806E0,1.214198592E1
2.005310307E0,-7.707113266E0,-7.295894146E0,-5.638923168E0,1.201778352E1
2.013536807E0,-7.169292450E0,-8.598049164E0,-5.007750988E0,1.226388085E1
2.021759000E0,-6.809526443E0,-9.741203308E0,-6.630972862E0,1.360994098E1
2.029999692E0,-7.203119278E0,-1.065781021E1,-9.713308334E0,1.611900135E1
2.038226192E0,-6.845834732E0,-1.135693073E1,-1.113019562E1,1.731261342E1
2.046468769E0,-6.855758667E0,-1.249315453E1,-1.112583637E1,1.807939634E1
2.054697615E0,-8.702353477E0,-1.311173248E1,-9.559950829E0,1.841306994E1
2.062939923E0,-1.120048618E1,-1.291209602E1,-8.123642921E0,1.892529230E1
2.071173076E0,-1.393308926E1,-1.365477753E1,-6.167380810E0,2.046021778E1
2.079432461E0,-1.528645706E1,-1.355172729E1,-4.507709026E0,2.091995513E1
2.087640961E0,-1.500924397E1,-1.390425682E1,-4.130338669E0,2.087260069E1
2.095869192E0,-1.530721283E1,-1.427563000E1,-2.199162960E0,2.104615628E1
2.104091076E0,-1.415992451E1,-1.451079941E1,-3.541328907E-1,2.027787394E1
2.112297461E0,-1.342992496E1,-1.418709087E1,7.848742008E-1,1.955127770E1
2.120523769E0,-1.151454735E1,-1.022889900E1,-1.551240444E0,1.547971325E1
2.128764230E0,-6.120383739E0,-6.601771355E0,4.219270706E0,9.942068569E0
2.136990576E0,-3.786520958E-1,-4.935978889E0,9.123439789E0,1.038000090E1
2.145199422E0,-2.205470800E0,-5.292133331E0,5.308778763E0,7.813700058E0
2.153407422E0,-2.613155603E0,-7.820685387E0,-4.901008606E-1,8.260260346E0
2.161615499E0,-3.157805204E0,-7.602109432E0,-4.497637749E0,9.380434257E0
2.169855538E0,-5.673963547E0,-6.156716347E0,-8.497994423E0,1.192958204E1
2.178082384E0,-9.951994896E0,-1.446407795E0,-1.449806213E1,1.764449216E1
2.186288999E0,-1.042834187E1,5.021365166E0,-2.714735031E1,2.951174429E1
2.194495614E0,5.323076248E-1,2.905729675E1,-4.260358810E1,5.157204248E1
2.202722153E0,1.311458874E1,2.571379852E1,-3.076222229E1,4.218419363E1
2.210929922E0,1.822450066E1,2.330899429E1,-6.060186863E0,3.020211092E1
2.219158037E0,1.643083954E1,2.325276566E1,6.272183228E1,6.888172357E1
2.227396730E0,7.449117661E0,1.581317806E1,1.870869637E1,2.560393083E1
2.235626230E0,6.413629532E0,1.451053619E1,-8.743331909E0,1.811452890E1
2.243853883E0,5.811359882E0,1.138544559E1,-1.572073460E1,2.026183040E1
2.252094576E0,4.270829201E0,8.525493622E0,-8.742244720E0,1.293641629E1
2.260300960E0,3.737479687E0,7.433846474E0,-7.845271826E-1,8.357410526E0
2.268538576E0,3.568382740E0,7.676238060E0,1.350989819E0,8.572231893E0
2.276809845E0,4.463047504E0,9.749354362E0,1.014733434E0,1.077025475E1
2.285037037E0,4.751593113E0,1.183897305E1,1.826411009E0,1.288699721E1
2.293275268E0,5.493447781E0,1.265774536E1,1.311031133E-1,1.379904613E1
2.301499383E0,6.525918007E0,1.239325905E1,-3.111217618E-1,1.400989909E1
2.309704076E0,8.373236656E0,1.303801537E1,4.582760811E0,1.615867053E1
2.317909922E0,5.353451729E0,1.364831638E1,1.042809391E1,1.799114027E1
2.326168922E0,-3.700338125E0,1.150420761E1,1.100969696E1,1.634786598E1
2.334375768E0,-5.367015839E0,1.019542503E1,9.121050835E0,1.469507125E1
2.342602345E0,-2.575819492E0,7.465533257E0,5.581778526E0,9.670847139E0
2.350843960E0,9.824429750E-1,4.520633698E0,2.889389515E0,5.454346432E0
2.359050998E0,2.801254034E0,6.245708466E-2,1.623872757E0,3.238500854E0
2.367258921E0,3.013162613E0,-5.011735439E0,3.662701607E0,6.900146673E0
2.375466652E0,3.614035845E0,-8.535288811E0,5.103384018E0,1.058097059E1
2.383694652E0,4.845318794E0,-1.127191544E1,3.566382170E0,1.277702131E1
2.391936498E0,6.247286797E0,-1.211680412E1,1.694561005E0,1.373743322E1
2.400166844E0,6.927150726E0,-1.277353668E1,2.613334358E-1,1.453330491E1
2.408392421E0,6.756146908E0,-1.237810707E1,8.543814421E-1,1.412773950E1
2.416598960E0,6.035236359E0,-1.241393852E1,3.470689356E-1,1.380762124E1
2.424823690E0,5.045445442E0,-1.249270535E1,-5.498814583E-1,1.348430852E1
2.433061460E0,4.120616913E0,-1.201614761E1,-1.014937162E0,1.274352324E1
2.441266383E0,3.650017977E0,-1.217400646E1,-1.765601635E0,1.283146187E1
2.449492844E0,3.558268309E0,-1.257368183E1,-3.268291473E0,1.346998431E1
2.457698344E0,3.982474327E0,-1.319723320E1,-4.241127491E0,1.442269837E1
2.465905921E0,4.175012112E0,-1.377886677E1,-3.666682243E0,1.485706748E1
2.474112190E0,3.790902138E0,-1.433683205E1,-2.908516169E0,1.511208650E1
2.482317229E0,3.064731598E0,-1.465179825E1,-2.561513901E0,1.518647837E1
2.490544075E0,1.123474598E0,-1.430007076E1,-2.426520348E0,1.454792837E1
2.498782075E0,-1.258898735E0,-1.291627979E1,-2.403244972E0,1.319813230E1
2.507008152E0,-1.886908531E0,-1.132999706E1,-2.881053925E0,1.184186341E1
2.515214382E0,-2.362190962E0,-1.058421707E1,-3.045296192E0,1.126407680E1
2.523452998E0,-2.295534849E0,-1.006007576E1,-3.663981676E0,1.094985691E1
2.531678882E0,-2.816003561E0,-9.197215080E0,-1.709297895E0,9.769357225E0
2.539918152E0,-3.707303047E0,-3.851360798E0,1.046561146E1,1.175185513E1
2.548144152E0,-4.116450310E0,1.729637146E0,1.666962814E1,1.725726833E1
2.556366421E0,-1.644297600E0,2.101937866E1,7.005195618E0,2.221690256E1
2.564597113E0,1.883334351E1,6.215175629E1,3.081153631E0,6.501560693E1
2.572854344E0,2.875179100E1,6.585279846E1,7.389227867E0,7.223473707E1
2.581094536E0,1.464848232E1,5.999095154E1,7.407568932E0,6.219617656E1
2.589316805E0,3.053007126E0,3.469498444E1,4.780903816E0,3.515565159E1
2.597559921E0,1.954849243E0,1.579494381E1,-1.532025337E-1,1.591619165E1
2.605788497E0,4.979267120E0,5.931159973E0,-1.267229557E0,7.847141545E0
2.614015344E0,7.525155544E0,2.151257515E0,-1.320866227E0,7.937289364E0
2.622222651E0,7.027771950E0,2.615924835E0,-2.507174969E0,7.906868384E0
2.630447420E0,5.435667515E0,3.579929352E0,-3.470415831E0,7.376053249E0
2.638686420E0,4.090589046E0,3.167805672E0,-3.792203426E0,6.414726678E0
2.646892343E0,2.656110764E0,2.417078018E0,-5.157800674E0,6.284910368E0
2.655118420E0,4.482579231E-1,9.001488686E-1,-8.221477509E0,8.282746862E0
2.663357920E0,-1.075244427E0,-1.174976826E0,-9.393321037E0,9.527392153E0
2.671584036E0,-3.494428873E0,-3.224390507E0,-7.875600338E0,9.199609121E0
2.679807536E0,-6.829440117E0,-4.856669426E0,-3.319283485E0,9.013663688E0
2.688014151E0,-9.796882629E0,-6.454992294E0,-6.564788818E-1,1.175060846E1
2.696220728E0,-1.047777462E1,-7.836775303E0,-3.621420383E0,1.357621058E1
2.704461112E0,-1.046407890E1,-9.443294525E0,-8.372602463E0,1.639430483E1
2.712689959E0,-1.029575253E1,-1.100853062E1,-1.170152283E1,1.908182127E1
2.720931343E0,-9.678172112E0,-1.260213661E1,-1.233680439E1,2.011660024E1
2.729160766E0,-9.128650665E0,-1.360062695E1,-1.104422569E1,1.975561281E1
2.737386959E0,-1.116480255E1,-1.340792465E1,-9.272310257E0,1.975856769E1
2.745627497E0,-1.342816925E1,-1.330465317E1,-6.543619633E0,2.000371174E1
2.753853651E0,-1.525817108E1,-1.406410217E1,-5.763776779E0,2.153675643E1
2.762075920E0,-1.444157314E1,-1.515723610E1,-3.482585907E0,2.122331844E1
2.770334881E0,-1.340463829E1,-1.570539093E1,-1.873912811E0,2.073294917E1
2.778561074E0,-1.224177170E1,-1.620651627E1,1.013404369E0,2.033566159E1
2.786799497E0,-1.230493259E1,-1.543218803E1,2.031841278E0,1.984167767E1
2.795005266E0,-1.122849941E1,-1.323528481E1,-2.416634560E-2,1.735662833E1
2.803245074E0,-7.978790283E0,-8.680956841E0,3.573204041E0,1.232022293E1
2.811451920E0,-9.276647568E-1,-6.068716526E0,7.724348068E0,9.866885793E0
2.819711304E0,-1.008630276E0,-3.482846737E0,5.418495655E0,6.519789229E0
2.827951920E0,-1.887214184E-1,-6.827363968E0,5.553243160E-1,6.852510461E0
2.836177958E0,-1.259073496E0,-7.064720154E0,-4.075540543E0,8.252609747E0
2.844385304E0,-3.707607269E0,-7.097425461E0,-7.126481056E0,1.071944644E1
2.852592650E0,-7.858490467E0,-2.047887802E0,-1.168110752E1,1.422666475E1
2.860818689E0,-1.302515793E1,3.283834457E0,-1.938301086E1,2.358260838E1
2.869024920E0,-7.879912376E0,2.700798035E1,-3.783958054E1,4.715249597E1
2.877252304E0,6.300210953E0,3.577383041E1,-3.416052628E1,4.986382613E1
2.885492381E0,1.457021046E1,2.814357185E1,-1.610226440E1,3.554763830E1
2.893721535E0,1.522387695E1,1.737837219E1,4.225303268E1,4.815696233E1
2.901928958E0,3.843376398E0,1.361931038E1,3.846543503E1,4.098593477E1
2.910169650E0,5.149732590E0,1.234577274E1,-1.579242706E0,1.346966436E1
2.918399419E0,4.806979179E0,1.085929680E1,-1.537975311E1,1.943111375E1
2.926641727E0,2.153162718E0,8.765172958E0,-1.545772171E1,1.789987506E1
2.934870842E0,1.041401386E0,7.838492393E0,-1.809294224E0,8.111721484E0
2.943098419E0,1.515246987E0,8.652165413E0,3.186460972E0,9.343953836E0
2.951307342E0,3.730865955E0,1.130022144E1,-3.486368656E0,1.240036821E1
2.959535535E0,7.983879566E0,1.334113216E1,2.188095152E-1,1.554914846E1
2.967775881E0,1.043033218E1,1.442785263E1,2.706917286E0,1.800783613E1
2.975984342E0,7.220456600E0,1.439034462E1,1.869447112E0,1.620838808E1
2.984212804E0,6.640458107E0,1.230300140E1,4.128855705E0,1.457761904E1
2.992454958E0,6.573572159E0,1.108250904E1,7.865840912E0,1.509653307E1
3.000685381E0,2.570860386E-1,9.728546143E0,9.263859749E0,1.343613786E1
3.008928111E0,-3.879935265E0,8.950943947E0,7.856369019E0,1.252580654E1
3.017171381E0,-3.913345814E0,7.553859711E0,6.627947807E0,1.078446865E1
3.025382457E0,-1.021625400E0,5.856377602E0,4.082030773E0,7.211369655E0
3.033624919E0,2.191800594E0,3.926059723E0,3.352312565E0,5.608559024E0
3.041853342E0,3.921783209E0,-2.660255432E-1,3.337414265E0,5.156499501E0
3.050045765E0,5.226066589E0,-4.999931812E0,5.527915001E0,9.103237577E0
3.058279496E0,6.437183380E0,-9.211529732E0,5.648694992E0,1.257765340E1
3.066539688E0,8.296028137E0,-1.136646557E1,3.016236067E0,1.439160527E1
3.074783688E0,9.025953293E0,-1.230572891E1,-5.380310416E-1,1.527050341E1
3.083014380E0,8.754943848E0,-1.317510605E1,8.179688454E-1,1.583987166E1
3.091241149E0,8.305780411E0,-1.291142654E1,1.683500648E0,1.544425777E1
3.099483688E0,7.096737862E0,-1.263444233E1,1.162679911E0,1.453769740E1
3.107713803E0,5.928834915E0,-1.237281036E1,6.981182098E-1,1.373771774E1
3.115957034E0,4.696954250E0,-1.200994015E1,-1.911814213E-1,1.289715441E1
3.124168803E0,3.526213646E0,-1.207808304E1,-9.231824279E-1,1.261612216E1
3.132412649E0,3.695845604E0,-1.232221889E1,-2.543384314E0,1.311354860E1
3.140623880E0,4.515589714E0,-1.286494446E1,-3.974325418E0,1.420185231E1
3.148854880E0,4.792248249E0,-1.349374580E1,-3.867084503E0,1.483243613E1
3.157066380E0,4.902103424E0,-1.413333321E1,-2.858387947E0,1.522997397E1
3.165297611E0,3.354353905E0,-1.408870506E1,-1.714625120E0,1.458366346E1
3.173521611E0,4.348638058E-1,-1.261608315E1,-2.505754530E-1,1.262606227E1
3.181731380E0,-1.522013187E0,-1.083368206E1,5.945854783E-1,1.095621846E1
3.189961111E0,-2.106451273E0,-1.014417744E1,1.623888016E-1,1.036184554E1
3.198204188E0,-1.871342182E0,-9.778470993E0,-1.828132033E0,1.012237538E1
3.206434534E0,-1.900418878E0,-9.765539169E0,-3.358926296E0,1.050046347E1
3.214676226E0,-1.923776627E0,-8.801039696E0,-5.371397972E0,1.048861919E1
3.222907149E0,-2.886607885E0,-5.817484856E0,-5.522292137E0,8.524749004E0
3.231115534E0,-3.545561314E0,1.773564339E0,6.354531288E0,7.489766577E0
3.239358110E0,-3.966364145E0,1.908275414E1,1.404286575E1,2.402260661E1
3.247587764E0,1.484846687E1,6.623380280E1,2.583658028E1,7.262866157E1
3.255829687E0,3.169652748E1,6.938114929E1,2.068305588E1,7.903292056E1
3.264085456E0,1.558603954E1,6.885461426E1,7.427735329E0,7.098629294E1
3.272316033E0,-1.342961669E0,4.444205093E1,6.692758560E0,4.496323447E1
3.280525418E0,-6.932239532E0,1.997307968E1,2.007827759E-1,2.114285153E1
3.288755687E0,-5.065924644E0,7.328281403E0,-1.576672435E0,9.047275655E0
3.296998226E0,-1.418604136E0,9.287433624E-1,-4.308276176E-1,1.749461164E0
3.305207572E0,1.550274849E0,-1.038154125E0,-1.849327087E-1,1.874917652E0
3.313469341E0,2.044557095E0,-2.465200424E-1,-1.015150309E0,2.295978221E0
3.321679572E0,2.070566177E0,3.461217880E-1,-1.519733191E0,2.591646881E0
3.329888225E0,1.511459827E0,1.230163574E-1,-2.821329594E0,3.203052374E0
3.338110072E0,5.844500065E-1,-8.737745285E-1,-5.645629406E0,5.742664462E0
3.346317456E0,-1.215040922E0,-2.202618599E0,-6.985877991E0,7.424981107E0
3.354545187E0,-3.014899254E0,-4.041711807E0,-7.253605843E0,8.834016616E0
3.362785071E0,-5.288152695E0,-5.646058559E0,-5.731668949E0,9.627801676E0
3.371011225E0,-7.839687824E0,-7.328542709E0,-3.331472635E0,1.123685692E1
3.379218533E0,-8.322114944E0,-8.923035622E0,-3.792360544E0,1.277732994E1
3.387449071E0,-8.102056503E0,-1.070897675E1,-7.881060600E0,1.557037632E1
3.395677225E0,-7.326095581E0,-1.176450634E1,-1.217930412E1,1.845022316E1
3.403919494E0,-6.432794094E0,-1.287405109E1,-1.430550480E1,2.029210435E1
3.412166610E0,-6.267719746E0,-1.425681877E1,-1.328989410E1,2.047345788E1
3.420392341E0,-7.502947330E0,-1.484241867E1,-1.061151695E1,1.972804863E1
3.428621610E0,-1.097632504E1,-1.544819832E1,-8.569449425E0,2.079812506E1
3.436852994E0,-1.503886223E1,-1.621584129E1,-5.881158829E0,2.288468735E1
3.445095494E0,-1.630482101E1,-1.642892456E1,-5.178291798E0,2.371858884E1
3.453324187E0,-1.356348228E1,-1.778067398E1,-3.009020805E0,2.256489807E1
3.461566148E0,-1.271778393E1,-1.704687881E1,4.878616333E-1,2.127383638E1
3.469774148E0,-1.293147755E1,-1.739605713E1,2.382738113E0,2.180649802E1
3.478001686E0,-1.271899128E1,-1.443227386E1,2.767525196E0,1.943508332E1
3.486208533E0,-9.133853912E0,-1.172065163E1,2.257917643E0,1.502994191E1
3.494434802E0,-3.144528866E0,-7.775703430E0,7.886345863E0,1.151277884E1
3.502655763E0,2.353420973E0,-3.648719788E0,1.668490982E1,1.724059054E1
3.510896648E0,2.328471661E0,-6.560958385E0,1.213018608E1,1.398604196E1
3.519123917E0,1.844514847E0,-8.885120392E0,2.606118202E0,9.441369153E0
3.527365379E0,7.374842167E-1,-8.017786980E0,-5.264277935E0,9.619844760E0
3.535592686E0,-3.269331217E0,-6.306609154E0,-9.204442024E0,1.162684818E1
3.543835302E0,-6.665525436E0,-5.203750610E0,-1.141682434E1,1.420746732E1
3.552049494E0,-1.146300030E1,-2.422345638E0,-1.989895058E1,2.309191132E1
3.560291417E0,-1.710667038E1,5.355827332E0,-4.151308060E1,4.521790484E1
3.568534763E0,-6.702445984E0,2.744638824E1,-4.611798859E1,5.408415555E1
3.576763609E0,2.435059547E0,3.556148529E1,-3.997229004E1,5.355681770E1
3.584955994E0,2.067143250E1,3.579966736E1,1.073460579E0,4.135307270E1
3.593186224E0,1.213826466E1,2.851920319E1,7.261411285E1,7.895246548E1
3.601415955E0,-4.357075691E-1,1.620578003E1,8.945896626E-1,1.623630001E1
3.609659378E0,5.539615631E0,1.428400993E1,-2.122803497E1,2.617918543E1
3.617888801E0,6.351636887E0,7.134010315E0,-2.041941261E1,2.254306558E1
3.626133340E0,5.012849808E0,3.808638573E0,-6.419783115E0,8.991551936E0
3.634341224E0,4.921904564E0,3.818291664E0,5.222407818E0,8.128839965E0
3.642569840E0,1.841240525E0,5.820608139E0,3.982467175E0,7.289011632E0
3.650810301E0,3.128186703E0,8.449887276E0,-2.027323961E0,9.235593617E0
3.659019801E0,3.892107964E0,1.159043884E1,-3.909053564E0,1.283617843E1
3.667261724E0,6.346877575E0,1.371527195E1,6.558019519E-1,1.512685082E1
3.675470416E0,6.798345566E0,1.354455185E1,6.862586498E0,1.663633014E1
3.683700186E0,6.936724663E0,1.119409657E1,1.029892921E1,1.671807076E1
3.691945070E0,2.742427826E0,1.012447643E1,5.765188694E0,1.196926623E1
3.700175801E0,-5.905524731E0,1.020991421E1,5.110674858E0,1.285443768E1
3.708401262E0,-9.469267845E0,7.766468048E0,6.491930962E0,1.386110483E1
3.716643301E0,-1.011011600E1,7.481963158E0,8.141864777E0,1.498279615E1
3.724853609E0,-4.805757046E0,6.784979820E0,6.020115852E0,1.026513745E1
3.733062839E0,1.301837206E0,2.901279449E0,3.459438801E0,4.698927470E0
3.741273109E0,5.733934879E0,-3.511399746E0,3.992340803E0,7.819636978E0
3.749482685E0,7.541032791E0,-9.028743744E0,4.701974869E0,1.266862095E1
3.757731762E0,9.156040192E0,-1.165709782E1,3.944293499E0,1.533878915E1
3.765939839E0,1.164951801E1,-1.247819138E1,1.574795365E0,1.714341012E1
3.774148955E0,1.237143230E1,-1.234663391E1,-4.662775397E-1,1.748453948E1
3.782360724E0,1.085732841E1,-1.191988754E1,1.366755962E0,1.618126451E1
3.790571762E0,8.789702415E0,-1.085290909E1,9.482384920E-1,1.399798773E1
3.798781685E0,8.083891869E0,-1.151530361E1,1.509670019E0,1.415028723E1
3.807022685E0,6.673415184E0,-1.125836468E1,1.001404285E0,1.312585449E1
3.815232185E0,6.076708794E0,-1.166889572E1,-1.105193138E0,1.320268795E1
3.823441108E0,5.221920967E0,-1.152295876E1,-2.989427567E0,1.299937361E1
3.831650070E0,4.713418007E0,-1.185230446E1,-4.037869453E0,1.337900669E1
3.839858839E0,4.857346535E0,-1.254662800E1,-3.194092274E0,1.382801197E1
3.848068800E0,4.411211967E0,-1.287335777E1,-1.744450450E0,1.371952035E1
3.856277416E0,3.738336086E0,-1.258109188E1,-1.283536077E0,1.318736116E1
3.864485647E0,2.081776619E0,-1.178436661E1,-1.520919800E0,1.206309609E1
3.872692646E0,2.075779438E-1,-1.025673389E1,-2.811259270E0,1.063705116E1
3.880931877E0,-1.235625029E0,-9.471911430E0,-4.398832321E0,1.051634923E1
3.889141185E0,-1.533953547E0,-8.933380127E0,-4.904694557E0,1.030603331E1
3.897349839E0,-1.905372381E0,-7.952908993E0,-4.118719101E0,9.156585193E0
3.905558916E0,-3.129247189E0,-4.457820415E0,7.845473289E-2,5.447063977E0
3.913768185E0,-3.856470585E0,1.173354149E0,8.752263069E0,9.635934525E0
3.921978069E0,-5.044042587E0,1.082786655E1,8.510401726E0,1.466669688E1
3.930189723E0,-5.649207115E0,4.962858963E1,1.183211517E1,5.133136857E1
3.938401146E0,2.954552841E1,6.877388763E1,2.158375168E1,7.790150323E1
3.946614531E0,1.574366188E1,6.939744568E1,1.155472183E1,7.209285646E1
3.954824146E0,2.759627104E0,5.227230072E1,9.603322029E0,5.321872564E1
3.963036300E0,-1.955931425E0,2.781005478E1,2.750590563E0,2.801411364E1
3.971265685E0,-1.095421433E0,9.249987602E0,-2.303791046E0,9.595294260E0
3.979507377E0,1.289614916E0,1.083010674E0,-2.067663193E0,2.666692676E0
3.987716800E0,1.754073620E0,-1.173398972E0,-2.160252094E0,3.019988166E0
3.995958954E0,6.470878124E-1,2.106170654E-1,-2.715110064E0,2.799090003E0
4.004199800E0,7.000815868E-1,1.374217987E0,-2.621478081E0,3.041502364E0
4.012431184E0,4.958794117E-1,1.360276222E0,-2.731496334E0,3.091491552E0
4.020673684E0,-1.275911689E0,7.473106384E-1,-5.525933743E0,5.720346804E0
4.028905338E0,-3.003574371E0,-9.760460854E-1,-8.230997086E0,8.816089722E0
4.037113954E0,-5.433717251E0,-3.059708118E0,-8.515158653E0,1.055438410E1
4.045343646E0,-7.079963684E0,-4.843763828E0,-7.247612953E0,1.123013033E1
4.053601684E0,-7.982767105E0,-6.773238659E0,-5.317050934E0,1.174190629E1
4.061843107E0,-8.726980209E0,-8.995091438E0,-5.955882072E0,1.387603635E1
4.070071492E0,-8.456299782E0,-1.137206841E1,-8.732797623E0,1.664616172E1
4.078312569E0,-7.306588173E0,-1.338859749E1,-1.129904366E1,1.898181132E1
4.086541300E0,-6.764074326E0,-1.437991714E1,-1.307733345E1,2.058036367E1
4.094748607E0,-5.578006744E0,-1.544278145E1,-1.221149349E1,2.046250795E1
4.102988992E0,-7.192369461E0,-1.514784241E1,-1.169691658E1,2.044517463E1
4.111218530E0,-1.259598541E1,-1.511409950E1,-8.170799255E0,2.130391543E1
4.119459107E0,-1.514706039E1,-1.538852501E1,-7.921109200E0,2.299965460E1
4.127666915E0,-1.419836140E1,-1.605507469E1,-5.056254387E0,2.202100357E1
4.135898415E0,-1.228542423E1,-1.679118538E1,-1.627275467E0,2.086920172E1
4.144105030E0,-1.045847034E1,-1.728996658E1,2.439327240E-1,2.020846480E1
4.152333107E0,-1.051410294E1,-1.567844772E1,2.272748947E0,1.901382316E1
4.160572338E0,-8.632773399E0,-1.448520470E1,2.609438896E0,1.706326765E1
4.168780761E0,-6.117716312E0,-1.291258049E1,7.741122246E0,1.625072803E1
4.177008991E0,2.462039948E0,-8.295391083E0,1.313834381E1,1.573185406E1
4.185249915E0,3.513913155E0,-5.393677711E0,8.329645157E0,1.052721869E1
4.193480914E0,1.090053082E0,-7.985567093E0,4.213114738E0,9.094384713E0
4.201724953E0,-7.094097137E-1,-8.570384979E0,-7.600592136E0,1.147709727E1
4.209959876E0,-5.289816856E0,-5.977354050E0,-1.158912945E1,1.407191690E1
4.218189991E0,-1.094989204E1,-1.844810963E0,-1.516815948E1,1.879831177E1
4.226433799E0,-1.648060417E1,3.848502159E0,-2.773095322E1,3.248733675E1
4.234663107E0,-6.994947910E0,2.935676193E1,-4.564186478E1,5.471680352E1
4.242874030E0,3.833519220E0,3.762291718E1,-3.632878876E1,5.244006731E1
4.251116876E0,1.678172684E1,3.075205612E1,-1.069543457E1,3.662932749E1
4.259345068E0,1.838227844E1,2.116392708E1,6.488249969E1,7.067926667E1
4.267587914E0,-1.316370487E0,1.286360455E1,2.106998825E1,2.472143924E1
4.275816491E0,-9.617059827E-1,1.455916500E1,-1.117151737E1,1.837653298E1
4.284039106E0,-8.566986918E-1,1.346998215E1,-1.687436867E1,2.160830094E1
4.292245529E0,-3.622265458E-1,8.743031502E0,-1.011950207E1,1.337819607E1
4.300504645E0,-7.308887243E-1,6.818616867E0,1.994237065E0,7.141758592E0
4.308745029E0,-8.413128853E-1,8.344382286E0,2.961773396E0,8.894302938E0
4.316953376E0,3.989583969E0,1.135094643E1,-2.005770445E0,1.219769979E1
4.325160760E0,7.823951244E0,1.335733700E1,6.151172519E-1,1.549228950E1
4.333368875E0,9.180158615E0,1.429501629E1,7.996853590E-1,1.700771294E1
4.341577260E0,8.018323898E0,1.370586109E1,2.786738157E0,1.612172621E1
4.349788645E0,6.362868786E0,1.317282581E1,8.847267151E0,1.709630297E1
4.357998798E0,2.448911667E0,1.057884884E1,1.093868256E1,1.541311089E1
4.366208568E0,-2.498895884E0,9.485112190E0,1.081487656E1,1.460045851E1
4.374447837E0,-4.294805527E0,7.273286819E0,6.732817650E0,1.080170770E1
4.382656991E0,-3.406112909E0,6.074899673E0,4.131396770E0,8.097805287E0
4.390866798E0,-1.379518032E0,5.116422653E0,3.988993645E0,6.632715964E0
4.399075221E0,1.254742861E0,2.020851135E0,4.003149033E0,4.656546052E0
4.407283644E0,3.635102749E0,-2.704315662E0,5.356847763E0,7.015918554E0
4.415495260E0,6.324941635E0,-6.899057865E0,7.461297035E0,1.196966330E1
4.423705144E0,8.560083389E0,-1.035601997E1,5.003261089E0,1.433718239E1
4.431913721E0,1.013489723E1,-1.170807266E1,1.713210106E0,1.557980090E1
4.440121529E0,1.076128387E1,-1.233051014E1,-2.124736905E-1,1.636740224E1
4.448330337E0,1.058269691E1,-1.260864067E1,1.274352074E0,1.651045931E1
4.456538644E0,1.013304901E1,-1.231258488E1,2.570011377E0,1.615188494E1
4.464747260E0,9.770841599E0,-1.214309120E1,3.312482834E0,1.593413167E1
4.472956144E0,7.803989887E0,-1.177818203E1,4.744603634E-1,1.413693541E1
4.481163836E0,6.653521538E0,-1.097235775E1,-3.276038885E0,1.324365562E1
4.489371875E0,6.258161545E0,-1.126437473E1,-3.580333948E0,1.337421083E1
4.497620567E0,7.359913349E0,-1.124176407E1,-4.365255833E0,1.412802330E1
4.505831336E0,8.233654022E0,-1.116286373E1,-3.462597609E0,1.429657887E1
4.514042759E0,8.032900810E0,-1.152485085E1,-2.068446636E0,1.419958288E1
4.522253375E0,7.511351585E0,-1.220730400E1,-1.577132106E0,1.441964005E1
4.530463413E0,6.070888042E0,-1.004158401E1,-2.195308208E0,1.193769112E1
4.538705029E0,3.489298820E-1,-9.629129410E0,2.557747364E-1,9.638843601E0
4.546945182E0,-2.143840313E0,-8.254565239E0,-8.431761861E-1,8.569996771E0
4.555155682E0,-2.562816381E0,-8.191254616E0,-2.582279682E0,8.962859384E0
4.563365798E0,-2.562437534E0,-7.769307613E0,-4.207181931E0,9.199380778E0
4.571575028E0,-3.475558043E0,-5.974602699E0,-4.898604393E0,8.471818348E0
4.579784644E0,-4.826874733E0,-2.613501549E0,-3.347206116E0,6.429066714E0
4.587992567E0,-4.013437271E0,3.156455994E0,2.270233154E0,5.587920163E0
4.596200567E0,-1.001555252E1,2.231583786E1,4.653605461E0,2.489907539E1
4.604408682E0,1.378971004E1,6.478514862E1,2.769198990E1,7.179218543E1
4.612617144E0,1.956262589E1,6.919725800E1,2.312866211E1,7.553735405E1
4.620826721E0,5.297770500E0,6.914493561E1,1.079873848E1,7.018334023E1
4.629035528E0,-2.885055542E0,5.052944565E1,8.441206932E0,5.131084094E1
4.637243951E0,-5.560727119E0,2.351911926E1,6.801891327E-2,2.416764952E1
4.645452605E0,-2.551943779E0,7.259213448E0,-2.493660450E0,8.088692068E0
4.653661297E0,-3.190062046E-1,9.719657898E-2,-1.832168579E0,1.862271150E0
4.661870682E0,3.180825710E-1,-2.367853165E0,-2.669994831E0,3.582844893E0
4.670079067E0,-3.749015331E-1,-2.314940929E0,-4.114362717E0,4.735766383E0
4.678286836E0,-6.023458242E-1,-1.734755993E0,-4.673509121E0,5.021343082E0
4.686493874E0,-1.808520555E0,-1.469072342E0,-5.168905258E0,5.669788507E0
4.694701182E0,-3.182861805E0,-2.519284725E0,-7.025551319E0,8.113924829E0
4.702940182E0,-3.568120956E0,-3.713115215E0,-8.590106964E0,1.001542058E1
4.711147028E0,-3.774310112E0,-4.708574295E0,-9.174484253E0,1.098122261E1
4.719355412E0,-4.862139702E0,-5.805774689E0,-6.912485123E0,1.025328595E1
4.727562643E0,-5.965660095E0,-7.691491127E0,-4.841657639E0,1.087151254E1
4.735770528E0,-6.098634243E0,-9.121318817E0,-5.865496635E0,1.244169793E1
4.744019066E0,-5.484994411E0,-1.092664719E1,-8.655200005E0,1.497962848E1
4.752227105E0,-5.858111858E0,-1.261012650E1,-1.152311897E1,1.805865542E1
4.760433758E0,-6.661013603E0,-1.454854965E1,-1.272557831E1,2.044430831E1
4.768639797E0,-7.555482388E0,-1.550294304E1,-1.491006660E1,2.279773329E1
4.776846605E0,-1.215288067E1,-1.792957115E1,-1.147679520E1,2.451283048E1
4.785055220E0,-1.335434246E1,-1.772229576E1,-9.013177872E0,2.395110864E1
4.793294874E0,-1.287014103E1,-1.832015228E1,-9.982240677E0,2.451353991E1
4.801504797E0,-1.018538570E1,-1.853459740E1,-5.056274414E0,2.174486821E1
4.809714566E0,-7.184673786E0,-1.824246216E1,-2.107647896E0,1.971925817E1
4.817923720E0,-7.480146408E0,-1.729962158E1,1.395804405E0,1.889914726E1
4.826132566E0,-9.050644875E0,-1.405525494E1,2.242456913E0,1.686691961E1
4.834341489E0,-6.769695282E0,-1.497691345E1,4.456048489E0,1.702918315E1
4.842550412E0,-4.931723118E0,-9.180648804E0,7.917956829E0,1.308817198E1
4.850758720E0,2.984289169E0,-4.485495567E0,1.384571362E1,1.485696597E1
4.858968797E0,4.799449921E0,-5.278065205E0,1.751969147E1,1.891645530E1
4.867206566E0,3.767572403E0,-7.614482880E0,8.733850479E0,1.218421501E1
4.875414220E0,1.744647861E0,-8.946939468E0,-1.198365927E0,9.193889433E0
4.883621681E0,-9.834123254E-1,-9.105040550E0,-1.208387756E1,1.516208957E1
4.891828566E0,-3.954956055E0,-7.345078945E0,-1.663735199E1,1.861164537E1
4.900068373E0,-8.383007050E0,-6.197579384E0,-1.924599075E1,2.188819219E1
4.908295950E0,-1.471668243E1,-1.950469494E0,-2.337646866E1,2.769195479E1
4.916521681E0,-2.374725342E1,5.566040039E0,-3.879909515E1,4.582884061E1
4.924727989E0,-1.334788132E1,2.948011208E1,-3.924250031E1,5.086469084E1
4.932953681E0,4.945940018E0,4.417021179E1,-2.511665535E1,5.105209406E1
4.941193873E0,3.163661575E1,4.697512054E1,6.696443939E1,8.770275680E1
4.949402989E0,2.191488981E0,1.684677124E1,2.858074760E1,3.324869108E1
4.957629950E0,-6.397116184E0,1.507126808E1,-7.569425583E0,1.803780532E1
4.965870950E0,-4.232212067E0,1.086497593E1,-1.866099548E1,2.200436487E1
4.974099065E0,5.438046455E-1,5.440598488E0,-1.537384605E1,1.631719884E1
4.982322565E0,3.605996132E0,3.727388382E0,-7.538445950E0,9.150125660E0
4.990562681E0,4.877510548E0,3.632187843E0,3.334758997E0,6.935669776E0
4.998769604E0,5.028181076E0,6.011816978E0,7.847020149E0,1.109054884E1
5.007009373E0,2.825480700E0,1.052450275E1,-4.475508213E0,1.178043603E1
5.015236527E0,1.936841726E0,1.505358219E1,-8.549526215E0,1.741999114E1
5.023445642E0,4.226913452E0,1.852933884E1,1.288795471E0,1.904899443E1
5.031686757E0,9.433644295E0,1.740596962E1,1.252559853E1,2.342759146E1
5.039926334E0,9.334609985E0,1.202022839E1,1.220834255E1,1.951062433E1
5.048134604E0,3.842985153E0,9.552029610E0,5.109002113E0,1.149398569E1
5.056343988E0,-5.545863628E0,7.993362427E0,8.337839127E0,1.281288444E1
5.064553142E0,-9.893592834E0,5.321436882E0,8.876244545E0,1.431742249E1
5.072763565E0,-9.818036079E0,5.872143745E0,6.724568367E0,1.327010642E1
5.080973180E0,-5.083826542E0,6.226018906E0,3.157574892E0,8.635906607E0
5.089182334E0,4.309256077E-1,3.121015549E0,1.540965438E0,3.507279489E0
5.097391373E0,4.444673538E0,-2.268111706E0,2.917344809E0,5.780169055E0
5.105598373E0,5.861237526E0,-9.006690979E0,6.258209229E0,1.243542402E1
5.113809296E0,7.801488876E0,-1.282274437E1,5.989722252E0,1.616053138E1
5.122020142E0,1.005929756E1,-1.304967403E1,3.459067822E0,1.683593211E1
5.130230488E0,1.126176548E1,-1.191858101E1,9.091656804E-1,1.642274390E1
5.138442719E0,1.147063446E1,-1.181599331E1,-2.461352944E-1,1.646978249E1
5.146653026E0,1.119917202E1,-1.223340225E1,1.688199401E0,1.667116078E1
5.154862757E0,1.120365334E1,-1.234230423E1,3.281724453E0,1.698893867E1
5.163072718E0,9.575421333E0,-1.170486164E1,3.338322937E-1,1.512626602E1
5.171281142E0,7.273121834E0,-1.077183437E1,-3.026948214E0,1.334515389E1
5.179490065E0,6.593192577E0,-1.099600124E1,-3.718201399E0,1.334942895E1
5.187696872E0,6.646945000E0,-1.072289371E1,-5.076827049E0,1.359913601E1
5.195933988E0,7.091523170E0,-1.080185318E1,-4.685853004E0,1.374507008E1
5.204140757E0,6.617805481E0,-1.134500885E1,-2.826258183E0,1.343474267E1
5.212347218E0,5.302427292E0,-1.168564701E1,-2.675481558E0,1.310832876E1
5.220554603E0,4.131605625E0,-1.118437004E1,-3.575203180E0,1.244758515E1
5.228761680E0,1.950291395E0,-9.556366920E0,-3.601727962E0,1.039712602E1
5.237009103E0,-8.541941643E-2,-7.290377617E0,-4.752852440E0,8.703247014E0
5.245215680E0,-2.148506641E0,-7.657677650E0,-3.824890852E0,8.825298738E0
5.253422680E0,-2.962931395E0,-6.343817711E0,-2.555013657E0,7.453259715E0
5.261628680E0,-4.279121399E0,-2.958052158E0,1.562075377E0,5.431485248E0
5.269836872E0,-5.310684204E0,2.337287903E0,1.306176567E1,1.429251566E1
5.278043295E0,-7.505072594E0,1.181466007E1,6.041596413E0,1.524510395E1
5.286280910E0,-1.477491951E1,4.679425049E1,1.427190685E1,5.110467151E1
5.294488103E0,2.832809448E1,6.463784790E1,2.274085999E1,7.414633525E1
5.302698756E0,9.329373360E0,6.922734833E1,1.229131889E1,7.092629614E1
5.310904872E0,2.663582087E0,5.764279556E1,1.056867599E1,5.866415824E1
5.319113910E0,-6.331158638E0,3.110768700E1,1.773481369E0,3.179492092E1
5.327322949E0,-2.606795311E0,1.109233665E1,-3.794622183E0,1.200976568E1
5.335530295E0,2.142002583E-1,2.306852341E0,-2.450477123E0,3.372282255E0
5.343738487E0,1.318686962E0,-1.015678406E0,-2.286985874E0,2.828576023E0
5.351945987E0,8.049163818E-1,-3.759536743E-1,-2.646610260E0,2.791733765E0
5.360185448E0,1.054110289E0,9.684858322E-1,-2.936846733E0,3.267136673E0
5.368394218E0,5.447845459E-1,7.840776443E-1,-4.162812710E0,4.270898923E0
5.376602333E0,-1.080543995E0,-1.999397278E-1,-6.403047562E0,6.496658318E0
5.384809871E0,-1.825192928E0,-1.579974174E0,-8.522722244E0,8.858015696E0
5.393016679E0,-2.312870741E0,-2.635006905E0,-8.531776428E0,9.224090279E0
5.401225410E0,-3.172463894E0,-4.221072197E0,-8.116150856E0,9.682658848E0
5.409433410E0,-5.275298119E0,-5.685440063E0,-5.519816875E0,9.519526107E0
5.417641871E0,-7.458922863E0,-7.522841930E0,-4.616423607E0,1.155595292E1
5.425850717E0,-8.047971725E0,-9.103271484E0,-6.549244404E0,1.380333303E1
5.434058717E0,-7.397676468E0,-1.088905144E1,-9.390636444E0,1.617037758E1
5.442269717E0,-4.791187763E0,-1.234544754E1,-1.168955040E1,1.766383717E1
5.450479679E0,-5.227974892E0,-1.403977394E1,-1.343727875E1,2.012479649E1
5.458689294E0,-7.510617256E0,-1.583455658E1,-1.152596855E1,2.097595063E1
5.466900333E0,-8.703333855E0,-1.628284836E1,-1.055311012E1,2.126610693E1
5.475109179E0,-1.121196651E1,-1.655803680E1,-8.134894371E0,2.158826724E1
5.483357717E0,-9.394513130E0,-1.732517624E1,-9.350610733E0,2.181404432E1
5.491566717E0,-8.335936546E0,-1.753083420E1,-6.024661064E0,2.032521898E1
5.499774602E0,-7.204637051E0,-1.697399712E1,-3.145702839E0,1.870611717E1
5.507982140E0,-7.624315739E0,-1.560512161E1,-7.407155037E-1,1.738386236E1
5.516188986E0,-8.316747665E0,-1.526907635E1,-7.340288162E-2,1.738730492E1
5.524428025E0,-8.518799782E0,-1.458402252E1,2.136667728E0,1.702436523E1
5.532666448E0,-6.489856243E0,-1.252618027E1,8.579849243E0,1.651173035E1
5.540872409E0,2.417445183E0,-6.266279221E0,1.212480736E1,1.386078100E1
5.549080717E0,5.820489883E0,-5.393073082E0,1.460272598E1,1.661935456E1
5.557288640E0,4.259556770E0,-8.871557236E0,8.709714890E0,1.314182199E1
5.565495448E0,2.740695238E0,-1.013293552E1,-2.059875488E0,1.069723701E1
5.573701371E0,9.308974743E-1,-1.082465935E1,-1.123367119E1,1.562802574E1
5.581906486E0,-2.627704859E0,-8.143687248E0,-1.676059532E1,1.881866176E1
5.590111178E0,-9.411170959E0,-5.398817062E0,-1.796600914E1,2.098796915E1
5.598320755E0,-1.727739906E1,-2.254981041E0,-2.427089691E1,2.987758181E1
5.606526755E0,-2.542840385E1,4.422571182E0,-3.975759125E1,4.740072700E1
5.614751948E0,-1.436381817E1,2.935410690E1,-4.168952560E1,5.297168498E1
5.622989332E0,1.747095585E0,4.209617615E1,-2.981487465E1,5.161460200E1
5.631214409E0,2.964224434E1,4.691895294E1,6.170212555E1,8.298917455E1
5.639453101E0,6.694952011E0,1.949785805E1,3.645888519E1,4.188363834E1
5.647657755E0,-1.100621223E0,1.647282982E1,-3.603804588E0,1.689831047E1
5.655862909E0,1.262909532E0,1.436780739E1,-1.316267014E1,1.952651312E1
5.664100986E0,2.590684414E0,9.825316429E0,-1.397156906E1,1.727579899E1
5.672364178E0,4.234085083E0,7.125551224E0,-8.606026649E0,1.194841627E1
5.680570332E0,5.218523026E0,6.345942497E0,-2.236029387E0,8.514916098E0
5.688807909E0,3.698506355E0,7.995520592E0,6.885637283E0,1.118120296E1
5.697013601E0,1.680766463E0,1.059539890E1,-2.305858135E-1,1.073035990E1
5.705219909E0,2.910466194E0,1.389514542E1,7.477760911E-1,1.421636552E1
5.713429370E0,6.649430275E0,1.413620758E1,5.049186707E0,1.641772134E1
5.721638563E0,9.707193375E0,9.754027367E0,8.514571190E0,1.618235383E1
5.729887947E0,4.226153851E0,1.324583912E1,1.014912415E1,1.721387090E1
5.738095486E0,-4.287138939E0,1.115523243E1,9.276583672E0,1.512857480E1
5.746303447E0,-1.014616871E1,7.799292564E0,1.249915981E1,1.788861929E1
5.754512255E0,-9.084930420E0,7.378787041E0,1.032280159E1,1.560585440E1
5.762721908E0,-4.463215828E0,7.506090164E0,2.195478201E0,9.004543831E0
5.770931601E0,1.658210754E-1,4.345642090E0,3.457258344E-1,4.362525433E0
5.779171755E0,5.188362122E0,-6.921443939E-1,1.608254433E0,5.475823928E0
5.787378985E0,7.941610336E0,-6.562813282E0,5.650937557E0,1.175043779E1
5.795588024E0,8.996620178E0,-1.004123306E1,8.698409081E0,1.604455847E1
5.803796062E0,1.116612339E1,-1.128949261E1,5.124664783E0,1.668523731E1
5.812002947E0,1.238772392E1,-1.120458317E1,1.456659675E0,1.676664085E1
5.820208139E0,1.191368008E1,-1.107281399E1,-6.775450706E-1,1.627888356E1
5.828390601E0,1.151368523E1,-1.098528290E1,-2.309027016E-1,1.591523496E1
5.836582216E0,1.127388000E1,-1.161014938E1,1.600509167E0,1.626215142E1
5.844789754E0,1.108748531E1,-1.178055859E1,2.933700562E0,1.644142604E1
5.853027216E0,9.013437271E0,-1.095481491E1,3.672261834E-1,1.419101393E1
5.861233293E0,6.522124290E0,-1.112314701E1,-1.754494190E0,1.301309934E1
5.869441639E0,6.300583839E0,-1.050417233E1,-3.386674404E0,1.270844430E1
5.877651947E0,6.647401810E0,-1.021448708E1,-5.252453327E0,1.327071825E1
5.885859946E0,7.034503937E0,-1.085653305E1,-4.922460079E0,1.384121269E1
5.894068600E0,6.734289646E0,-1.168972778E1,-3.566591978E0,1.395424563E1
5.902275562E0,5.895435333E0,-1.225224495E1,-3.635654449E0,1.407450345E1
5.910482985E0,4.662442207E0,-1.178450871E1,-4.544079304E0,1.346334540E1
5.918690254E0,2.414035320E0,-1.041411400E1,-4.871499062E0,1.174788662E1
5.926897023E0,-4.867112637E-1,-9.116176605E0,-4.305947304E0,1.009369833E1
5.935104446E0,-1.817248821E0,-8.821340561E0,-4.110237122E0,9.900125846E0
5.943311100E0,-2.381927729E0,-8.710638046E0,-3.562307835E0,9.707668720E0
5.951516677E0,-1.708997965E0,-5.197913647E0,-8.653588295E-1,5.539659396E0
5.959722831E0,-6.035731792E0,2.284812927E-1,1.700859261E1,1.804922393E1
5.967928523E0,-7.605938911E0,7.226943970E0,9.013410568E0,1.383186885E1
5.976175292E0,-1.677886200E1,3.183422852E1,5.127090454E0,3.634880152E1
5.984381254E0,1.779990005E1,6.696805573E1,2.283228683E1,7.295800334E1
5.992586638E0,1.458094978E1,6.934296417E1,1.103161526E1,7.171295080E1
6.000798100E0,1.414423704E0,6.008789062E1,9.178516388E0,6.080131871E1
6.009005100E0,-6.203141212E0,3.460267258E1,1.855018854E0,3.520319595E1
6.017243600E0,-4.333130360E0,1.299017429E1,-3.094364643E0,1.403907901E1
6.025480100E0,-1.015362263E0,2.124986649E0,-2.197383404E0,3.221028191E0
6.033687984E0,2.566344738E-1,-1.241356850E0,-1.055404902E0,1.649456755E0
6.041897600E0,3.648347855E-1,-1.271761894E0,-1.344279051E0,1.886151877E0
6.050105754E0,1.152027845E0,-1.172637939E-2,-1.523872852E0,1.910364922E0
6.058316061E0,1.317994833E0,3.300104141E-1,-2.422392607E0,2.777409439E0
6.066524446E0,3.354549408E-4,-7.153205872E-1,-4.490693569E0,4.547308257E0
6.074732177E0,-1.372917175E0,-1.917051792E0,-6.008221626E0,6.454356378E0
6.082940292E0,-2.539119720E0,-3.046993732E0,-5.919931889E0,7.125790716E0
6.091144792E0,-3.498351574E0,-4.470808506E0,-5.177207470E0,7.683102864E0
6.099350407E0,-3.737699509E0,-5.997989655E0,-4.112466812E0,8.176714548E0
6.107555715E0,-5.121127605E0,-7.159769058E0,-3.438738108E0,9.450564041E0
6.115760753E0,-6.266857147E0,-8.381526947E0,-5.304977894E0,1.173312758E1
6.123966215E0,-6.540184975E0,-9.705636024E0,-9.411902428E0,1.501856509E1
6.132172099E0,-5.322697163E0,-1.085826302E1,-1.262147141E1,1.747954580E1
6.140377984E0,-4.180852413E0,-1.144928551E1,-1.422944069E1,1.873613215E1
6.148583792E0,-4.466691971E0,-1.263856316E1,-1.358943558E1,1.908814750E1
6.156789138E0,-5.388014793E0,-1.357036972E1,-1.207624149E1,1.894785598E1
6.164993945E0,-8.744346619E0,-1.432338905E1,-8.880674362E0,1.898655969E1
6.173199099E0,-1.046895218E1,-1.552718925E1,-7.798451424E0,2.028567008E1
6.181434022E0,-1.302484703E1,-1.715200424E1,-6.689089775E0,2.255175851E1
6.189639138E0,-1.135051537E1,-1.847029114E1,-4.125352383E0,2.206817587E1
6.197844099E0,-8.419846535E0,-1.900518417E1,-2.039603233E0,2.088661826E1
6.206049830E0,-6.248717308E0,-1.845728874E1,2.125043869E-1,1.948751225E1
6.214256484E0,-5.522068977E0,-1.611336708E1,-1.310883522E0,1.708368403E1
6.222505522E0,-6.444642067E0,-1.418262100E1,6.868670464E0,1.702523961E1
6.230712984E0,-1.516719937E0,-1.177440166E1,1.094434929E1,1.614669487E1
6.238920676E0,4.506102562E0,-7.313724518E0,1.212473679E1,1.485950096E1
6.247128945E0,1.805636644E0,-6.689544678E0,8.467728615E0,1.094133262E1
6.255337945E0,-7.842841744E-1,-7.512324333E0,6.859402657E-1,7.584235795E0
6.263548445E0,-3.988586664E0,-5.955296516E0,-1.237924767E1,1.430455008E1
6.271787253E0,-1.015435410E1,-1.429219246E0,-1.939436722E1,2.193843783E1
6.279995560E0,-1.491936874E1,4.449616432E0,-3.024936295E1,3.402073792E1
6.288228445E0,-1.287825966E1,2.361802864E1,-4.608985901E1,5.336605618E1
6.296436868E0,2.596276999E0,3.371419525E1,-3.225986481E1,4.673421116E1
6.304645406E0,1.532115364E1,3.525277710E1,3.319052505E1,5.078490913E1
6.312853676E0,2.152294731E1,1.657777977E1,3.172452545E1,4.176727856E1
6.321061714E0,3.507774353E0,9.751946449E0,1.107340050E1,1.516657967E1
6.329270368E0,-7.530941010E0,1.256841660E1,-6.648367405E0,1.608977804E1
6.337478829E0,-2.143710852E0,1.167147827E1,-1.238379574E1,1.715159754E1
6.345719945E0,1.472049475E0,1.013244629E1,-7.166503429E0,1.249768654E1
6.353928945E0,-5.087273717E-1,8.991366386E0,-1.002681971E0,9.061393059E0
6.362138175E0,-2.867926598E0,9.776415825E0,-3.549647093E0,1.078903628E1
6.370347983E0,-2.321643353E0,1.112320995E1,-3.720295906E0,1.195643882E1
6.378557675E0,1.418385386E0,1.196229172E1,-4.386079311E-2,1.204616802E1
6.386768829E0,6.120337963E0,1.291215134E1,2.913226128E0,1.458317782E1
6.394979137E0,7.648027420E0,1.229945755E1,-1.213983297E-1,1.448391235E1
6.403188906E0,6.852464676E0,1.181466198E1,-1.519940615E0,1.374236986E1
6.411399368E0,6.543866158E0,1.095343876E1,2.982090473E0,1.310316254E1
6.419609598E0,7.413196087E0,9.040171623E0,9.940003395E0,1.534548294E1
6.427819406E0,5.109678268E0,9.683893204E0,1.014171696E1,1.492451079E1
6.436026598E0,-3.123076916E0,7.493404388E0,8.113711357E0,1.147767532E1
6.444234598E0,-7.983868599E0,4.869492531E0,7.616705418E0,1.206102470E1
6.452451675E0,-5.192096710E0,6.141698837E0,6.743238449E0,1.049521785E1
6.460660137E0,-2.291447401E0,6.430436134E0,2.135581970E0,7.152758239E0
6.468908906E0,1.733698845E-1,3.511344910E0,8.341192007E-1,3.613219483E0
6.477117560E0,2.671649218E0,-2.020587921E0,5.306632042E0,6.275414625E0
6.485325444E0,5.528789520E0,-6.934223175E0,8.971486092E0,1.261501198E1
6.493533560E0,7.940624237E0,-9.123264313E0,5.232038498E0,1.317807618E1
6.501742367E0,9.502230644E0,-9.832929611E0,8.863909245E-1,1.370272166E1
6.509981059E0,1.044791126E1,-1.067082405E1,-8.137707710E-1,1.495618797E1
6.518219175E0,1.014133835E1,-1.110098457E1,4.373444021E-1,1.504226951E1
6.526426752E0,9.537252426E0,-1.167094994E1,2.100894928E0,1.521788473E1
6.534635098E0,9.517868996E0,-1.245120811E1,2.932061434E0,1.594425909E1
6.542843906E0,9.238687515E0,-1.208119774E1,2.849468470E0,1.547346620E1
6.551054829E0,8.803989410E0,-1.179876995E1,1.469742537E0,1.479463906E1
6.559264329E0,7.562448025E0,-1.114314651E1,-1.895511866E0,1.359975366E1
6.567473098E0,7.488148689E0,-1.080167770E1,-4.748600006E0,1.397489943E1
6.575683213E0,7.527521610E0,-1.075037193E1,-4.727910519E0,1.394945218E1
6.583892098E0,6.470334530E0,-1.098858261E1,-2.739870548E0,1.304304671E1
6.592101598E0,4.745936394E0,-1.107405472E1,-2.125330925E0,1.223419927E1
6.600309598E0,2.895009756E0,-1.023925781E1,-2.540553808E0,1.093973929E1
6.608516098E0,1.185213327E0,-9.073607445E0,-3.211659908E0,9.697929782E0
6.616724251E0,-3.337175846E-1,-8.322215080E0,-4.685039043E0,9.556161473E0
6.624930521E0,-1.077147961E0,-7.563997269E0,-5.577438831E0,9.459499264E0
6.633138482E0,-1.863118410E0,-6.176631451E0,-4.488820076E0,7.859484205E0
6.641347790E0,-2.603373528E0,-3.134008408E0,-2.910829782E0,5.007243997E0
6.649555828E0,-5.058087826E0,3.535446167E0,1.207522011E1,1.356077331E1
6.657765444E0,-1.037578583E1,1.357708645E1,1.140435123E1,2.054393913E1
6.665975174E0,-1.522077847E1,3.663109207E1,1.610000229E1,4.281026836E1
6.674199982E0,2.616282654E1,5.749663544E1,1.970325279E1,6.617079983E1
6.682409174E0,1.739012909E1,6.636985779E1,8.462774277E0,6.913026227E1
6.690617405E0,3.957214832E0,5.767480850E1,5.804148674E0,5.810104325E1
6.698826790E0,-6.581237793E0,3.697900391E1,-7.899632454E-1,3.756838382E1
6.707035713E0,-6.401200294E-1,1.461872768E1,-4.124242306E0,1.520283945E1
6.715284751E0,2.448607206E0,4.519733429E0,-2.759479046E0,5.834243064E0
6.723492674E0,2.604869366E0,5.782136917E-1,-1.744431019E0,3.187901357E0
6.731702097E0,2.398816824E0,2.059459686E-2,-1.221764326E0,2.692109649E0
6.739911020E0,2.565084696E0,6.035451889E-1,-1.380047560E0,2.974635702E0
6.748119059E0,1.417165756E0,-1.695661545E-1,-3.907892942E0,4.160377232E0
6.756328751E0,-2.944152355E-1,-1.798857689E0,-6.471849442E0,6.723645180E0
6.764569789E0,-1.395552158E0,-3.689832211E0,-8.056643486E0,8.970614908E0
6.772778020E0,-2.624273777E0,-5.068464279E0,-8.278256416E0,1.005513164E1
6.780986251E0,-2.831397057E0,-6.010829926E0,-7.416748047E0,9.957662240E0
6.789193635E0,-2.912487984E0,-6.355390549E0,-5.814244270E0,9.092799993E0
6.797400674E0,-3.171446800E0,-7.517283916E0,-5.779719830E0,9.998639587E0
6.805606981E0,-4.267396927E0,-8.462068558E0,-8.121353149E0,1.248093177E1
6.813814020E0,-4.281962872E0,-9.946930885E0,-1.197220993E1,1.614343367E1
6.822021520E0,-4.034588814E0,-1.200437164E1,-1.350300980E1,1.851253951E1
6.830227943E0,-3.769302607E0,-1.238620377E1,-1.253645706E1,1.802188785E1
6.838463981E0,-4.638978004E0,-1.271573067E1,-1.068492126E1,1.724463585E1
6.846670981E0,-6.214035034E0,-1.294958591E1,-1.065283394E1,1.788264180E1
6.854877558E0,-9.808255196E0,-1.419394970E1,-1.133610153E1,2.064406152E1
6.863083827E0,-9.782089233E0,-1.583999348E1,-1.120469093E1,2.172877728E1
6.871289943E0,-1.121573448E1,-1.612821198E1,-8.277067184E0,2.131717061E1
6.879497635E0,-9.849667549E0,-1.491153908E1,-5.535509586E0,1.870860270E1
6.887704058E0,-8.698579788E0,-1.598611832E1,-2.043524981E0,1.831385441E1
6.895910520E0,-1.079243660E1,-1.496228504E1,-1.034216404E0,1.847745288E1
6.904117635E0,-1.081276321E1,-1.490829468E1,1.217146873E0,1.845682922E1
6.912323366E0,-5.817002296E0,-1.242799187E1,6.110859871E0,1.502115528E1
6.920531443E0,1.152764559E0,-5.588809490E0,1.372646332E1,1.486537766E1
6.928737596E0,6.064754486E0,-6.997729301E0,2.413467216E1,2.585018110E1
6.936945250E0,6.261680126E0,-6.942572594E0,1.807166290E1,2.034681676E1
6.945153366E0,2.042880058E0,-9.075438499E0,-3.016742229E0,9.779451752E0
6.953360827E0,-2.791785717E0,-8.553976059E0,-1.475220871E1,1.727982163E1
6.961608096E0,-1.014377975E1,-4.538266659E0,-2.086371613E1,2.363867134E1
6.969814404E0,-1.626446915E1,-1.495330811E0,-2.475990677E1,2.966179283E1
6.978023288E0,-2.373511124E1,8.403882980E0,-3.844688797E1,4.595806729E1
6.986235519E0,-1.441511631E1,2.429966164E1,-4.066683578E1,4.951828618E1
6.994444711E0,-3.105709076E0,3.100106239E1,-2.817674255E1,4.200761978E1
7.002683827E0,1.530447865E1,2.824502563E1,7.919082642E0,3.308655935E1
7.010921442E0,2.556175613E1,2.017948532E1,5.759268188E1,6.616292021E1
7.019126981E0,6.638956070E0,1.444795895E1,9.776191711E0,1.866529346E1
7.027333596E0,2.924659252E0,1.464810562E1,-9.285554886E0,1.758812553E1
7.035539634E0,1.755666971E0,1.341605854E1,-1.636268425E1,2.123229684E1
7.043746019E0,2.611248016E0,1.159146595E1,-1.265551090E1,1.735922392E1
7.051951173E0,5.341623783E0,9.830433846E0,-2.661435366E0,1.150015706E1
7.060157173E0,6.370714664E0,1.022553444E1,5.696321964E0,1.332650156E1
7.068364134E0,3.052545786E0,1.265062618E1,4.196741104E0,1.367366134E1
7.076571480E0,2.457234859E0,1.425693226E1,2.306711674E0,1.464988189E1
7.084778788E0,4.311038494E0,1.367311764E1,5.918680429E-1,1.434885036E1
7.092985250E0,7.524862289E0,1.074827290E1,5.522742748E0,1.423550527E1
7.101192365E0,9.793496132E0,6.235179901E0,1.196423531E1,1.667132152E1
7.109400634E0,5.487702370E0,1.128849983E1,7.207765102E0,1.447401062E1
7.117606980E0,-5.274571896E0,6.819746971E0,1.395266628E1,1.640143146E1
7.125812673E0,-1.254594994E1,6.435905457E0,1.302784443E1,1.919756415E1
7.134018942E0,-8.134582520E0,6.822716713E0,7.451992989E0,1.297124110E1
7.142225557E0,-4.212557316E0,5.570263863E0,6.082564592E-2,6.984066036E0
7.150433942E0,1.288379073E0,2.041463852E0,-2.042690039E0,3.162289975E0
7.158640672E0,5.978302002E0,-4.320577621E0,2.805754423E0,7.891751624E0
7.166877249E0,8.859712601E0,-9.547141075E0,9.687123299E0,1.623215229E1
7.175081095E0,1.071241665E1,-1.132843208E1,7.644415379E0,1.736451354E1
7.183287018E0,1.238226128E1,-1.146066761E1,2.697842598E0,1.708641715E1
7.191492018E0,1.246675682E1,-1.052202225E1,-4.943390191E-2,1.631365751E1
7.199698249E0,1.159702682E1,-1.047486782E1,-1.563394666E0,1.570535227E1
7.207944249E0,1.129762459E1,-1.124231815E1,7.173144817E-1,1.595432790E1
7.216150249E0,9.927700043E0,-1.065736961E1,8.513125777E-1,1.458984196E1
7.224355749E0,8.587724686E0,-1.024319458E1,-1.105956674E0,1.341250128E1
7.232561134E0,7.625883102E0,-1.054391003E1,-2.267096043E0,1.320862810E1
7.240767211E0,7.665538311E0,-1.081980896E1,-3.113292217E0,1.362062157E1
7.248973980E0,8.109807014E0,-1.071793747E1,-4.050536156E0,1.403744979E1
7.257211787E0,8.270402908E0,-1.102221489E1,-2.544993639E0,1.401305741E1
7.265419864E0,7.052458763E0,-1.149924660E1,-4.855760336E-1,1.349835660E1
7.273628595E0,5.330344200E0,-1.135348701E1,-2.076190710E0,1.271317445E1
7.281837095E0,3.880596876E0,-1.024776649E1,-4.440646172E0,1.182349731E1
7.290043903E0,1.894235611E0,-8.841774940E0,-4.425139904E0,1.006712351E1
7.298249864E0,2.980830669E-1,-7.963772297E0,-4.770443916E0,9.288038430E0
7.306457556E0,-8.771686554E-1,-7.314837933E0,-5.440898418E0,9.158583648E0
7.314664672E0,-2.200157166E0,-5.574054241E0,-3.923964262E0,7.162978973E0
7.322870479E0,-3.146608114E0,-2.777945995E0,-2.022632599E0,4.659309950E0
7.331107403E0,-3.790984869E0,3.227342606E0,1.017069244E1,1.132388146E1
7.339313095E0,-6.404265404E0,8.545407295E0,8.574995995E0,1.369558898E1
7.347518402E0,-1.425944519E1,2.965917206E1,8.103620529E0,3.389198917E1
7.355724210E0,5.990715504E0,6.214309311E1,2.149970436E1,6.602946298E1
7.363929825E0,1.903048515E1,6.683593750E1,1.383417892E1,7.085609651E1
7.372134479E0,7.114034653E0,6.144823837E1,8.626812935E0,6.245732455E1
7.380341248E0,-2.960478306E0,3.791870499E1,2.935202122E0,3.814718903E1
7.388547672E0,-1.621091247E0,1.663187027E1,-3.239871502E0,1.702186279E1
7.396754671E0,1.951570630E0,5.268335342E0,-2.575499773E0,6.180387066E0
7.404960902E0,2.765272141E0,7.066488266E-1,-2.035864115E0,3.505827330E0
7.413167633E0,1.956931949E0,6.744174957E-1,-2.055932999E0,2.917410171E0
7.421372479E0,1.532172561E0,1.861130714E0,-1.973083496E0,3.115191611E0
7.429577787E0,6.257011890E-1,1.668265343E0,-3.907947302E0,4.294957898E0
7.437783479E0,-1.004072905E0,-4.035367966E-1,-6.138817787E0,6.233465181E0
7.445989094E0,-3.606314659E0,-2.194190025E0,-7.012443542E0,8.185007008E0
7.454235556E0,-4.795078278E0,-3.972649097E0,-6.726519108E0,9.166284735E0
7.462442864E0,-5.708570957E0,-5.510761261E0,-6.326382637E0,1.014787610E1
7.470650787E0,-6.363406181E0,-6.755993366E0,-5.242766857E0,1.065940847E1
7.478859479E0,-6.773090363E0,-8.875366211E0,-4.826711655E0,1.216322424E1
7.487067363E0,-5.411160469E0,-1.054801559E1,-7.192927361E0,1.386648819E1
7.495305902E0,-2.982633591E0,-1.120994949E1,-1.159423637E1,1.640077400E1
7.503460786E0,-3.765181303E0,-1.273596191E1,-1.326372623E1,1.876986281E1
7.511670479E0,-4.239504337E0,-1.344838333E1,-1.298775196E1,1.917065759E1
7.519880556E0,-5.042502403E0,-1.357252121E1,-1.203243065E1,1.882603383E1
7.528087671E0,-4.917593002E0,-1.359228325E1,-1.098589611E1,1.815551702E1
7.536296248E0,-8.744729996E0,-1.500635910E1,-8.709727287E0,1.942988589E1
7.544503671E0,-1.060583496E1,-1.522937870E1,-8.347443581E0,2.034938636E1
7.552711748E0,-1.259460831E1,-1.430031776E1,-8.225573540E0,2.075531996E1
7.560922055E0,-9.713791847E0,-1.466011047E1,-4.627385139E0,1.818486416E1
7.569130171E0,-8.887217522E0,-1.563138962E1,-2.116349220E0,1.810530062E1
7.577338632E0,-1.035705280E1,-1.617155266E1,1.465206623E0,1.925965962E1
7.585547478E0,-9.222335815E0,-1.553783607E1,5.491485596E0,1.888470921E1
7.593754786E0,-3.953636169E0,-1.066202927E1,1.382808399E1,1.790324032E1
7.601963094E0,6.539604664E0,-8.540124893E0,1.540737343E1,1.879061783E1
7.610172478E0,7.954130173E0,-8.317437172E0,1.699850082E1,2.052795602E1
7.618384017E0,4.870029449E0,-8.837025642E0,8.246377945E0,1.303123011E1
7.626592978E0,1.530058742E0,-9.980186462E0,-6.037741661E0,1.176433279E1
7.634800555E0,-3.326424599E0,-8.437989235E0,-1.598828125E1,1.838178175E1
7.643008324E0,-8.719495773E0,-5.084699631E0,-2.128727531E1,2.355911431E1
7.651214709E0,-1.353325176E1,-1.796950340E0,-2.351815033E1,2.719340598E1
7.659435786E0,-2.297270584E1,5.620551109E0,-3.594150162E1,4.302472948E1
7.667641786E0,-1.767744637E1,2.444491577E1,-4.202452087E1,5.173109676E1
7.675847978E0,-2.251045704E0,3.864257431E1,-2.864293289E1,4.815322794E1
7.684056247E0,1.491433907E1,3.470147705E1,-9.187904358E0,3.887219579E1
7.692308709E0,2.567683029E1,2.230670547E1,7.035047913E1,7.814140155E1
7.700555940E0,4.102033615E0,3.882459641E0,2.307491302E1,2.375608940E1
7.708764247E0,-1.500666142E0,7.565514565E0,-5.391014099E0,9.410209483E0
7.716973132E0,-1.907393694E0,7.811738968E0,-1.795747566E1,1.967567911E1
7.725183209E0,-8.010948896E-1,4.592106819E0,-1.954288864E1,2.009113472E1
7.733390786E0,1.665130258E0,2.669372559E0,-4.849488735E0,5.780635746E0
7.741599324E0,-8.624211550E-1,9.887876511E0,8.840217590E0,1.329147543E1
7.749836670E0,1.490901113E0,1.711275673E1,1.174633980E0,1.721769421E1
7.758042209E0,5.317942619E0,1.923417282E1,-7.139824390E0,2.119459861E1
7.766248747E0,7.355278492E0,2.143444443E1,-1.319433689E0,2.269970121E1
7.774431593E0,1.054267025E1,2.009737396E1,8.559664726E0,2.425531275E1
7.782603747E0,1.262163162E1,1.374911308E1,1.310932636E1,2.280785244E1
7.790811170E0,8.808711052E0,9.725984573E0,9.113658905E0,1.597644970E1
7.799018093E0,-3.424004078E0,7.843802452E0,7.778508663E0,1.156521672E1
7.807224708E0,-1.016753864E1,5.508951187E0,8.805541992E0,1.453495631E1
7.815432285E0,-1.013842297E1,5.742547989E0,6.806725979E0,1.349429495E1
7.823643978E0,-4.201979637E0,5.676489830E0,5.647722721E0,9.043005120E0
7.831850362E0,3.157353401E-2,2.924656868E0,3.000275850E0,4.190020270E0
7.840058170E0,4.413237095E0,-2.545992374E0,1.618169308E0,5.345765683E0
7.848263824E0,6.535374641E0,-8.263802528E0,5.684612274E0,1.197148156E1
7.856469670E0,8.779191971E0,-1.219416809E1,6.533169746E0,1.638457366E1
7.864675785E0,1.214556217E1,-1.254290104E1,4.312297344E0,1.798429747E1
7.872883285E0,1.389540768E1,-1.160366631E1,1.553303480E0,1.816975999E1
7.881091131E0,1.349270821E1,-1.119733047E1,-2.810726166E-1,1.753603109E1
7.889298708E0,1.224536324E1,-1.106180286E1,7.819123268E-1,1.652040527E1
7.897505900E0,1.040062904E1,-1.078470135E1,6.084297299E-1,1.499510101E1
7.905715400E0,8.316190720E0,-1.030891800E1,-5.094003081E-1,1.325489748E1
7.913923746E0,7.060506821E0,-1.052301788E1,-1.869951844E0,1.280942551E1
7.922132016E0,7.455522537E0,-1.097918892E1,-2.657465696E0,1.353475266E1
7.930339054E0,8.320930481E0,-1.123043060E1,-3.428917408E0,1.439159234E1
7.938543823E0,8.981443405E0,-1.163953781E1,-2.883051157E0,1.498189407E1
7.946756977E0,7.806089401E0,-1.196635532E1,-1.742096186E0,1.439317861E1
7.954963900E0,5.125837803E0,-1.201053333E1,-2.564966679E-1,1.306112226E1
7.963170977E0,3.540437460E0,-1.127283096E1,-8.766837716E-1,1.184820618E1
7.971377169E0,2.506781816E0,-1.064793587E1,-1.618343592E0,1.105809791E1
7.979582631E0,1.356328726E0,-1.006306076E1,-2.047908068E0,1.035851085E1
7.987794900E0,2.829477787E-1,-9.441265106E0,-3.191176891E0,9.970012849E0
7.996032323E0,-6.919593811E-1,-8.446587563E0,-3.808171272E0,9.291168800E0
8.004239977E0,-2.254416466E0,-6.447000504E0,-1.830729961E0,7.070910923E0
8.012446246E0,-4.762165546E0,1.328879356E0,8.736454964E0,1.003841553E1
8.020652054E0,-4.117036343E0,6.448329926E0,4.924315453E0,9.098342143E0
8.028857861E0,-1.161303425E1,2.029079437E1,8.734672546E0,2.495743186E1
8.037064246E0,-3.254009247E0,6.368747711E1,2.017471123E1,6.688574056E1
8.045269707E0,2.653446388E1,6.916417694E1,2.024074554E1,7.679484960E1
8.053476477E0,8.880601883E0,6.897079468E1,1.102428246E1,7.040859615E1
8.061684438E0,-3.249059200E0,4.326804733E1,3.519592047E0,4.353237685E1
8.069891630E0,-9.295763969E-1,1.827067947E1,-1.803458214E0,1.838298948E1
8.078096130E0,3.189119339E0,5.508418083E0,-1.731557608E0,6.596320466E0
8.086301092E0,3.687206745E0,2.361040115E-1,-1.005930662E0,3.829247339E0
8.094506400E0,2.717038631E0,-1.520279884E0,-1.883783102E0,3.638981812E0
8.102709438E0,2.137611389E0,-1.323615551E0,-2.328648806E0,3.426944096E0
8.110914976E0,9.369000196E-1,-1.255070686E0,-3.875992537E0,4.180466746E0
8.119120053E0,-1.471533179E0,-1.668094635E0,-5.821433067E0,6.231936502E0
8.127325053E0,-4.080598354E0,-2.529215813E0,-7.098722458E0,8.569718554E0
8.135529938E0,-5.245439053E0,-3.764971733E0,-7.772985458E0,1.010489713E1
8.143734399E0,-7.004196167E0,-5.034722328E0,-7.891543865E0,1.169117862E1
8.151938746E0,-9.007837296E0,-6.033869267E0,-6.643630028E0,1.271560187E1
8.160144015E0,-9.073258400E0,-6.989696503E0,-5.632840157E0,1.276357173E1
8.168349169E0,-8.315927505E0,-7.650194645E0,-7.022963047E0,1.330421506E1
8.176555630E0,-8.570226669E0,-9.239997864E0,-1.010509872E1,1.615361773E1
8.184762630E0,-9.935507774E0,-1.195678902E1,-1.046669102E1,1.874115096E1
8.192975592E0,-8.493787766E0,-1.405290604E1,-1.002036667E1,1.923632883E1
8.201182476E0,-8.165841103E0,-1.418130112E1,-1.014276695E1,1.925268770E1
8.209389745E0,-7.641797066E0,-1.575040436E1,-1.195421219E1,2.119847846E1
8.217598438E0,-9.703068733E0,-1.740828705E1,-1.279140854E1,2.368159904E1
8.225807668E0,-1.129680824E1,-1.786057663E1,-9.371044159E0,2.311784035E1
8.234016553E0,-9.595855713E0,-1.782262421E1,-7.580832005E0,2.161470320E1
8.242253630E0,-6.901822090E0,-1.594340706E1,-2.626242638E0,1.757055853E1
8.250459784E0,-4.684222698E0,-1.542730141E1,-5.959749222E-2,1.612287576E1
8.258666361E0,-5.643436909E0,-1.449077415E1,-1.311675787E0,1.560613370E1
8.266873053E0,-5.599668980E0,-1.494204330E1,1.366569996E0,1.601525724E1
8.275085784E0,-4.576138020E0,-1.438964462E1,9.023099899E0,1.759031675E1
8.283290707E0,3.418499470E0,-1.101502037E1,9.994599342E0,1.526135081E1
8.291496707E0,4.553256512E0,-9.723850250E0,9.396093369E0,1.426786526E1
8.299703360E0,2.228107452E0,-7.483460426E0,4.618422031E0,9.071739901E0
8.307786514E0,-3.263731956E0,-5.263450623E0,-6.170003891E0,8.742128274E0
8.315992168E0,-7.474878311E0,-2.708420277E0,-1.559675503E1,1.750623071E1
8.324196860E0,-1.232720566E1,1.520705223E0,-2.390218163E1,2.693671899E1
8.332403668E0,-1.714205551E1,2.194405746E1,-4.365717697E1,5.178166496E1
8.340611706E0,-8.339592934E0,3.823966217E1,-3.320418549E1,5.132580742E1
8.348819476E0,1.288267994E1,3.625000763E1,1.393514442E1,4.091716933E1
8.357026129E0,1.966869164E1,1.553448200E1,2.814471054E1,3.768689816E1
8.365231745E0,6.982076645E0,1.194281292E1,1.756554985E1,2.235908577E1
8.373437591E0,-3.040864468E0,1.337549400E1,6.483759880E-1,1.373211884E1
8.381644706E0,-9.480597973E-1,1.142207909E1,-1.008327103E1,1.526548599E1
8.389851283E0,8.043261766E-1,1.085775566E1,-9.431680679E0,1.440466588E1
8.398058129E0,-8.195081353E-1,1.020386124E1,-2.447649240E0,1.052527266E1
8.406266937E0,-1.952900171E0,9.633058548E0,-1.844644547E-1,9.830750897E0
8.414474706E0,-1.583792448E0,1.054117203E1,1.450285912E-1,1.066047558E1
8.422680591E0,1.440291524E0,1.149381351E1,2.086302996E0,1.177008279E1
8.430886821E0,6.639100552E0,1.208203506E1,2.610155344E0,1.403089941E1
8.439091629E0,7.603766441E0,1.217028618E1,-1.216492057E0,1.440183956E1
8.447298667E0,7.140089512E0,1.201943493E1,-1.713432431E0,1.408486936E1
8.455504744E0,9.538311005E0,1.049634647E1,4.316804409E0,1.482523074E1
8.463710052E0,8.539269447E0,1.033115578E1,9.674134254E0,1.652999625E1
8.471915398E0,1.781034708E0,9.024680138E0,1.173350620E1,1.490946357E1
8.480120860E0,-4.279412746E0,6.113274574E0,1.086023712E1,1.317688316E1
8.488360321E0,-5.028275967E0,5.741630554E0,6.473848820E0,1.000802674E1
8.496566937E0,-3.038020849E0,4.761520386E0,9.247341156E-1,5.723353934E0
8.504775244E0,-2.082624197E0,3.497202873E0,8.209712505E-1,4.152318061E0
8.512982513E0,1.100535393E-1,-1.019257545E0,4.396547318E0,4.514490673E0
8.521190167E0,2.357344627E0,-5.409948826E0,8.898304939E0,1.067728668E1
8.529397129E0,5.126114845E0,-8.998103142E0,8.674455643E0,1.350885244E1
8.537602513E0,8.422434807E0,-1.009542656E1,3.625671625E0,1.363820150E1
8.545811013E0,1.007160664E1,-1.005197048E1,6.870175004E-1,1.424609995E1
8.554018667E0,1.089739513E1,-1.072304535E1,-3.529153168E-1,1.529252992E1
8.562225667E0,1.104716396E1,-1.153347778E1,1.617309570E0,1.605230923E1
8.570432744E0,1.068914604E1,-1.233308125E1,3.179341555E0,1.662741558E1
8.578639052E0,1.013608551E1,-1.271135330E1,3.487097263E0,1.662764504E1
8.586846244E0,9.743552208E0,-1.213450527E1,2.211928129E0,1.571864033E1
8.595052782E0,8.257824898E0,-1.098313141E1,-1.595439672E0,1.383351999E1
8.603259436E0,7.777276039E0,-1.064941502E1,-5.005860329E0,1.410513029E1
8.611466244E0,8.287202835E0,-1.060894871E1,-6.400305271E0,1.490608705E1
8.619675359E0,8.574096680E0,-1.081203270E1,-5.131865501E0,1.472247359E1
8.627884013E0,7.941407681E0,-1.054073906E1,-1.913684964E0,1.333549122E1
8.636091205E0,6.197175980E0,-1.044107628E1,-1.125460982E0,1.219375768E1
8.644299513E0,4.932521343E0,-9.821292877E0,-2.709429264E0,1.131938901E1
8.652507590E0,2.932294369E0,-8.596310616E0,-2.815149546E0,9.508941762E0
8.660715859E0,6.684484482E-1,-7.633824348E0,-2.931172132E0,8.204502884E0
8.668924974E0,-7.521977425E-1,-7.141517162E0,-3.295796633E0,7.901224226E0
8.677133282E0,-2.767970085E0,-5.144889355E0,-2.044085503E0,6.189493550E0
8.685341436E0,-4.660983086E0,-2.422591209E0,-3.355859518E0,6.233418372E0
8.693548743E0,-7.745777130E0,2.917078018E0,6.292120934E0,1.039698001E1
8.701756628E0,-1.103419018E1,9.054280281E0,7.971522331E0,1.634865476E1
8.709963436E0,-1.928123093E1,2.898566818E1,1.217684937E1,3.688103153E1
8.718170436E0,-2.813151360E0,6.230049133E1,2.148835564E1,6.596222001E1
8.726377743E0,2.657593536E1,6.586627960E1,1.834599686E1,7.335681788E1
8.734615513E0,8.230327606E0,6.730165100E1,1.359043694E1,6.915164854E1
8.742821513E0,-3.121133566E0,4.298621750E1,4.509500027E0,4.333465080E1
8.751026666E0,-2.546230793E0,1.750287056E1,-2.800963163E0,1.790751696E1
8.759231436E0,1.885565519E-1,4.517693520E0,-3.784311056E0,5.896280054E0
8.767437282E0,5.396783352E-1,2.327623367E-1,-2.588494778E0,2.654380573E0
8.775640051E0,9.061167240E-1,-1.589344978E0,-3.049136162E0,3.555881932E0
8.783842435E0,1.425450563E0,-1.497220993E0,-2.946870327E0,3.599670087E0
8.792045589E0,1.368835449E0,-1.527924061E0,-4.007993698E0,4.502474420E0
8.800250512E0,3.397367001E-1,-2.244621754E0,-6.209379673E0,6.611364743E0
8.808457089E0,-1.395722032E0,-3.435029507E0,-7.504840851E0,8.370788726E0
8.816661743E0,-2.612919807E0,-4.907542229E0,-7.215588570E0,9.109118456E0
8.824867320E0,-3.996139050E0,-6.113254547E0,-6.736052513E0,9.935562990E0
8.833073666E0,-4.598043919E0,-7.004006386E0,-5.869073391E0,1.022957163E1
8.841279012E0,-5.394981384E0,-7.992330551E0,-5.264568329E0,1.098630290E1
8.849490935E0,-6.090770721E0,-8.943742752E0,-5.047161579E0,1.193992724E1
8.857695743E0,-5.854778290E0,-9.359462738E0,-7.037327766E0,1.309205689E1
8.865901743E0,-4.787807465E0,-1.048156071E1,-1.069164848E1,1.571933721E1
8.874109397E0,-5.675272465E0,-1.239095497E1,-1.093142319E1,1.747113321E1
8.882317589E0,-6.253971100E0,-1.441510105E1,-1.025717258E1,1.876477770E1
8.890523089E0,-4.782951355E0,-1.543055725E1,-1.075989532E1,1.941015374E1
8.898729166E0,-1.007775497E1,-1.527088928E1,-1.114298820E1,2.142259067E1
8.906935704E0,-1.246008492E1,-1.709249496E1,-1.246103096E1,2.454963122E1
8.915142589E0,-1.276446629E1,-1.842174530E1,-1.017142677E1,2.461199346E1
8.923297666E0,-1.096069527E1,-1.807314110E1,-7.700546265E0,2.249608150E1
8.931510973E0,-7.670213223E0,-1.721524048E1,-2.151839495E0,1.896910880E1
8.939718089E0,-5.853654861E0,-1.541560555E1,-1.297583818E0,1.654055299E1
8.947925512E0,-6.724017620E0,-1.294091225E1,-9.588813782E-2,1.458385468E1
8.956132512E0,-4.406088352E0,-1.472072315E1,7.663948536E0,1.717117969E1
8.964339050E0,2.515521526E0,-1.089961243E1,1.455366707E1,1.835588801E1
8.972550742E0,5.955090523E0,-5.165201187E0,1.792601395E1,1.958275727E1
8.980790550E0,3.932151318E0,-8.463337898E0,1.170813751E1,1.497232067E1
8.988998396E0,2.568510056E0,-5.600462914E0,2.179731846E0,6.535568810E0
8.997204781E0,-2.054660559E0,-6.269638538E0,-9.257119179E0,1.136768459E1
9.005410473E0,-6.934340477E0,-4.345003128E0,-1.771779633E1,1.951626083E1
9.013616127E0,-1.342724609E1,7.086277008E-1,-2.306184006E1,2.669534712E1
9.021822819E0,-2.338069725E1,7.632175446E0,-3.726184082E1,4.464696952E1
9.030029819E0,-2.416733551E1,2.224546432E1,-4.020220947E1,5.191472272E1
9.038237781E0,-7.358785629E0,3.025153160E1,-2.702001572E1,4.122363569E1
9.046442934E0,1.140782070E1,3.235409164E1,-1.075472069E1,3.595260264E1
9.054648934E0,3.152882767E1,2.563533401E1,7.171457672E1,8.242704555E1
9.062853665E0,1.187717199E0,1.509658813E1,1.454248333E1,2.099527249E1
9.071059742E0,-5.636255264E0,1.643181229E1,-1.195941353E1,2.109026791E1
9.079265627E0,-1.976087809E0,1.201154327E1,-1.701743507E1,2.092307796E1
9.087470204E0,1.784377337E0,7.159117699E0,-1.140339661E1,1.358213617E1
9.095675550E0,3.537672520E0,3.693860054E0,-2.729015112E0,5.797176247E0
9.103880550E0,3.119636536E0,3.084976196E0,1.729371905E0,4.715923815E0
9.112085973E0,2.535869181E-1,8.823640823E0,9.017258883E-1,8.873221133E0
9.120292011E0,2.495939970E0,1.308932877E1,-2.075835705E0,1.348589403E1
9.128498665E0,4.077447891E0,1.513632011E1,-3.117400169E0,1.598286432E1
9.136711319E0,5.005249977E0,1.755029488E1,2.720198035E-1,1.825210597E1
9.144917896E0,8.325032234E0,1.674309158E1,6.162105560E0,1.968778358E1
9.153126357E0,1.126191139E1,1.417219734E1,1.203584766E1,2.173806465E1
9.161333819E0,1.115871239E1,1.122908688E1,9.603191376E0,1.851568359E1
9.169539242E0,1.795297623E0,8.073896408E0,1.073944473E1,1.355531519E1
9.177751588E0,-6.459494114E0,4.386262894E0,1.140631962E1,1.382275275E1
9.185956742E0,-8.104643822E0,5.447118759E0,5.265170097E0,1.109406915E1
9.194162434E0,-6.156241894E0,6.686940193E0,4.198252201E0,1.001198307E1
9.202368049E0,-2.985225201E0,3.299977303E0,3.340888500E0,5.564436689E0
9.210572665E0,1.268488526E0,-2.929966450E0,4.445221901E0,5.473003224E0
9.218777665E0,4.186589241E0,-8.058809280E0,7.027474880E0,1.148291512E1
9.227013665E0,6.986257553E0,-1.054203415E1,5.243928432E0,1.369091173E1
9.235218472E0,9.968194008E0,-1.142162132E1,1.963755727E0,1.528642084E1
9.243422664E0,1.211256790E1,-1.160707283E1,1.252830029E0,1.682284233E1
9.251625857E0,1.295491886E1,-1.253169346E1,1.141432166E0,1.806034692E1
9.259830549E0,1.317395592E1,-1.270937538E1,1.740819931E0,1.838781638E1
9.268035895E0,1.201455116E1,-1.185876846E1,2.455459535E-1,1.688313128E1
9.276240895E0,9.885640144E0,-1.117100620E1,-1.724745035E0,1.501639125E1
9.284446857E0,8.845617294E0,-1.109667969E1,-3.328947067E0,1.457611519E1
9.292653126E0,8.337424278E0,-1.082484818E1,-3.865072012E0,1.419960433E1
9.300863895E0,9.108550072E0,-1.131507874E1,-4.803519726E0,1.529936250E1
9.309068280E0,9.727029800E0,-1.119023323E1,-4.085878849E0,1.537955898E1
9.317272395E0,8.425027847E0,-1.128788662E1,-7.696712613E-1,1.410637701E1
9.325477587E0,6.404741287E0,-1.158501816E1,2.548168004E-1,1.324002599E1
9.333683279E0,5.106875896E0,-1.159640026E1,-9.764575958E-1,1.270866436E1
9.341888664E0,3.041609287E0,-9.988101006E0,-2.308657885E0,1.069314968E1
9.350092856E0,1.074663877E0,-8.347614288E0,-2.343862057E0,8.736776070E0
9.358297895E0,-8.215057850E-1,-7.420288563E0,-2.755994320E0,7.958081352E0
9.366502818E0,-2.583359241E0,-6.549539089E0,-2.118982077E0,7.352570455E0
9.374708702E0,-4.233415127E0,-4.610445976E0,7.941472530E-2,6.259738208E0
9.382914625E0,-5.967722893E0,5.739984512E-1,3.408269405E0,6.896338963E0
9.391120779E0,-7.846817493E0,3.995952606E0,6.111054420E0,1.071844989E1
9.399328087E0,-1.362579918E1,1.254784966E1,4.549637794E0,1.907380765E1
9.407535664E0,-2.074387741E1,3.326717377E1,7.111925125E0,3.984460791E1
9.415744048E0,7.777871609E0,5.849713135E1,2.230201912E1,6.308557458E1
9.423976664E0,2.433065414E1,6.647170258E1,2.015666389E1,7.359863500E1
9.432185395E0,1.353450680E1,5.989130783E1,1.059157944E1,6.230837169E1
9.440393433E0,-3.962258339E0,3.646780396E1,1.839850187E0,3.672853475E1
9.448602010E0,-8.881917596E-1,1.411392975E1,-1.382244587E0,1.420923987E1
9.456811394E0,1.903800130E0,4.002843857E0,-1.793416023E0,4.781584979E0
9.465023356E0,2.347312927E0,8.623123169E-3,-1.663812399E0,2.877190302E0
9.473259625E0,1.522472620E0,-9.420766830E-1,-1.515507936E0,2.345675950E0
9.481465702E0,8.949830532E-1,-1.694478989E-1,-2.083146095E0,2.273588553E0
9.489671433E0,1.146479845E-1,-7.444543839E-1,-3.505759954E0,3.585764821E0
9.497876510E0,-1.372003317E0,-1.732214451E0,-5.669027328E0,6.084474575E0
9.506082933E0,-2.790333033E0,-3.182372093E0,-7.019795418E0,8.197010326E0
9.514288586E0,-3.113374710E0,-4.627964020E0,-6.834782124E0,8.821870535E0
9.522495240E0,-3.657410383E0,-5.803058624E0,-7.376413345E0,1.007291487E1
9.530701817E0,-3.880113602E0,-6.433175087E0,-7.444590569E0,1.057652835E1
9.538908894E0,-4.110270977E0,-7.072304726E0,-6.675198078E0,1.055793971E1
9.547116625E0,-4.705758572E0,-7.662577152E0,-6.941377640E0,1.135966443E1
9.555325702E0,-4.874863148E0,-8.396069527E0,-8.110771179E0,1.265080564E1
9.563534125E0,-4.890733719E0,-8.781163216E0,-1.086056328E1,1.479797075E1
9.571740548E0,-5.506319046E0,-1.104014587E1,-1.039358711E1,1.613167764E1
9.579946855E0,-5.946822166E0,-1.246155071E1,-7.695634365E0,1.580752126E1
9.588151894E0,-4.955690861E0,-1.319868088E1,-7.397820473E0,1.592142571E1
9.596356702E0,-7.550587654E0,-1.458151245E1,-8.147169113E0,1.833052765E1
9.604561278E0,-1.133865929E1,-1.677248764E1,-9.754213333E0,2.247278830E1
9.612766740E0,-1.231756687E1,-1.794389534E1,-9.633891106E0,2.380163212E1
9.620970355E0,-1.186043358E1,-1.603101349E1,-6.306738853E0,2.091502410E1
9.629180432E0,-8.217889786E0,-1.603136826E1,-3.511827469E0,1.835405712E1
9.637385201E0,-6.121708870E0,-1.719939041E1,-2.061750889E0,1.837240231E1
9.645590701E0,-6.631245136E0,-1.389423084E1,3.817253113E-1,1.540028496E1
9.653796086E0,-5.142666817E0,-1.651893234E1,7.778217316E0,1.896899608E1
9.662001047E0,1.582884192E0,-1.452670670E1,1.434001541E1,2.047356275E1
9.670210547E0,6.848868370E0,-8.682653427E0,1.344807911E1,1.741109704E1
9.678414855E0,5.587829590E0,-6.256495476E0,1.331911659E1,1.574059853E1
9.686618547E0,2.427396774E0,-6.976454258E0,4.339184761E-1,7.399422569E0
9.694823047E0,-3.051337719E0,-6.029361725E0,-1.293576622E1,1.459444800E1
9.703028317E0,-8.694145203E0,-2.623882294E0,-1.842781067E1,2.054402894E1
9.711234355E0,-1.452413273E1,2.822494507E0,-2.444420052E1,2.857334152E1
9.719468855E0,-1.896728516E1,1.648169518E1,-3.645873642E1,4.427915586E1
9.727674855E0,-1.276021194E1,3.557771301E1,-2.721753311E1,4.657671930E1
9.735881624E0,8.646642685E0,3.907582855E1,3.329663515E0,4.015932601E1
9.744086624E0,2.281083298E1,2.271165085E1,3.276261520E1,4.592975224E1
9.752292739E0,4.309108257E0,1.675542450E1,1.555074310E1,2.326237897E1
9.760499701E0,-7.567371368E0,1.587757969E1,-3.703254700E0,1.797433564E1
9.768704509E0,-1.018822074E0,9.967471123E0,-1.206964207E1,1.568645080E1
9.776909509E0,3.521645069E-2,9.092560768E0,-9.525601387E0,1.316863635E1
9.785112893E0,1.346461654E0,6.468303680E0,-3.236914158E0,7.357276993E0
9.793316739E0,1.767492533E0,5.373677254E0,-1.621181488E0,5.884612689E0
9.801521662E0,2.891846299E-1,6.710543633E0,-1.141568422E0,6.813090492E0
9.809727008E0,1.431961805E-1,1.021637344E1,2.463930845E0,1.051026863E1
9.817932778E0,1.481096029E0,1.240616894E1,2.344074726E0,1.271225234E1
9.826137470E0,3.063770771E0,1.414240456E1,1.626696467E0,1.456160841E1
9.834344008E0,4.325704098E0,1.438912964E1,1.317856669E0,1.508295442E1
9.842551085E0,7.823081970E0,1.286327553E1,2.935376167E0,1.533886900E1
9.850756739E0,1.165713310E1,9.599714279E0,1.111290646E1,1.874939883E1
9.858961201E0,9.924880981E0,7.588530540E0,6.530133247E0,1.409722308E1
9.867166739E0,1.308768988E-1,6.713188171E0,8.617812157E0,1.092477508E1
9.875371816E0,-6.427254200E0,4.213970184E0,9.620285034E0,1.231328654E1
9.883578354E0,-6.953897476E0,5.260540009E0,6.710328102E0,1.100265761E1
9.891784431E0,-4.062272072E0,5.325068474E0,4.865671635E0,8.278476254E0
9.899990431E0,-1.466978788E0,1.663425446E0,2.339013815E0,3.223351766E0
9.908198047E0,-3.167922497E-1,-3.860107422E0,4.215492725E0,5.724610516E0
9.916411546E0,2.525342941E0,-8.631002426E0,8.094255447E0,1.209911282E1
9.924618008E0,7.137621880E0,-1.158714962E1,6.695971489E0,1.516719211E1
9.932824239E0,1.087269592E1,-1.224389839E1,3.264999866E0,1.669696944E1
9.941031123E0,1.225887871E1,-1.260522842E1,1.276247740E0,1.762954052E1
9.949237316E0,1.272653580E1,-1.260349560E1,1.353347301E0,1.796230396E1
9.957448085E0,1.214172363E1,-1.200909042E1,7.356491685E-1,1.709329943E1
9.965686431E0,1.038058853E1,-1.068576145E1,-1.023636699E0,1.493284796E1
9.973892123E0,8.868137360E0,-1.095735359E1,-1.356777191E0,1.416150777E1
9.982100546E0,7.606337070E0,-1.093959522E1,-2.407871723E0,1.353990227E1
9.990307546E0,7.532292366E0,-1.112926292E1,-2.675315857E0,1.370230771E1
9.998513469E0,8.264329910E0,-1.085289764E1,-2.145650625E0,1.380899536E1
1.000672055E1,8.024775505E0,-1.060945129E1,-1.573698044E0,1.339529784E1
1.001492751E1,6.435632706E0,-1.040925980E1,1.076883435E0,1.228534638E1
1.002313535E1,4.929487228E0,-1.030652332E1,5.931240320E-1,1.144010767E1
1.003134339E1,4.205368519E0,-9.686063766E0,-2.708837509E0,1.090150248E1
1.003955251E1,1.923992634E0,-8.294994354E0,-3.777852058E0,9.315623713E0
1.004776174E1,-2.859070301E-1,-6.917742729E0,-3.615612268E0,7.810861628E0
1.005597012E1,-1.581650257E0,-5.808758736E0,-3.853960037E0,7.148167846E0
1.006417782E1,-3.837725639E0,-3.936504364E0,-1.775537848E0,5.777260540E0
1.007238374E1,-5.340229034E0,6.924629211E-3,7.506390810E-1,5.392731508E0
1.008058885E1,-7.998589516E0,6.326945305E0,5.899880409E0,1.178203123E1
1.008879455E1,-1.171940327E1,1.105850124E1,2.550033808E0,1.631372229E1
1.009700208E1,-2.083784294E1,2.848402786E1,1.017422295E1,3.672969309E1
1.010520735E1,-7.211476803E0,5.254682159E1,1.715476036E1,5.574459310E1
1.011341335E1,3.564318848E1,5.763663101E1,1.596861649E1,6.962337848E1
1.012165816E1,1.300911999E1,6.270053482E1,1.411370087E1,6.557279025E1
1.012986705E1,-5.972288847E-1,4.126538467E1,6.817574024E0,4.182903262E1
1.013807451E1,-2.584249496E0,1.814037704E1,-6.993722916E-1,1.833686850E1
1.014628178E1,-4.950122833E-1,6.785377502E0,-1.886202335E0,7.060038545E0
1.015448762E1,3.325462341E-2,2.094879150E-1,-1.802190900E0,1.814630292E0
1.016269912E1,-4.951580763E-1,-2.481515408E0,-2.532190323E0,3.579816765E0
1.017090485E1,-2.865791321E-1,-2.496783733E0,-1.765925884E0,3.071571396E0
1.017911104E1,-2.164080143E-1,-1.981349945E0,-2.664357185E0,3.327368216E0
1.018731689E1,-8.138356209E-1,-2.421309948E0,-4.654353619E0,5.309244569E0
1.019552274E1,-1.557684183E0,-3.620885372E0,-5.063735962E0,6.417056396E0
1.020372958E1,-1.847846270E0,-5.236800194E0,-4.676589012E0,7.260103091E0
1.021196743E1,-2.748245716E0,-6.271050453E0,-4.633731842E0,8.267430017E0
1.022017478E1,-3.168219566E0,-7.031747341E0,-4.960852623E0,9.170231439E0
1.022837993E1,-3.521257162E0,-7.835258484E0,-5.348421574E0,1.011909783E1
1.023658574E1,-3.515121698E0,-8.666886330E0,-7.024895668E0,1.169701493E1
1.024479120E1,-3.164218426E0,-8.969625473E0,-9.586105347E0,1.350406883E1
1.025300028E1,-2.330097198E0,-9.641354561E0,-1.277160931E1,1.617093303E1
1.026120893E1,-2.558709145E0,-1.053163910E1,-1.301014137E1,1.693299126E1
1.026941581E1,-4.193185329E0,-1.043413544E1,-9.992642403E0,1.504349985E1
1.027762293E1,-3.910479546E0,-1.134578705E1,-1.069477367E1,1.607472917E1
1.028583416E1,-1.042735481E1,-1.323578262E1,-1.109109306E1,2.017245685E1
1.029403997E1,-1.480128098E1,-1.530321693E1,-1.002307892E1,2.353143595E1
1.030224839E1,-1.807478523E1,-1.544226837E1,-8.418224335E0,2.521959585E1
1.031045639E1,-1.688121414E1,-1.476252937E1,-4.484641552E0,2.286962340E1
1.031866343E1,-1.245874596E1,-1.754598808E1,-3.517683029E0,2.180495683E1
1.032687158E1,-8.437245369E0,-1.703214455E1,-8.069736958E-1,1.902451744E1
1.033507916E1,-5.941781521E0,-1.459089088E1,9.382357597E-1,1.578224163E1
1.034328801E1,-4.321167946E0,-1.280769634E1,1.095544434E1,1.739917638E1
1.035149474E1,3.680247307E0,-1.213227940E1,1.469130707E1,1.940543550E1
1.035970174E1,8.338804245E0,-8.438486099E0,1.820006180E1,2.172523770E1
1.036790978E1,6.160271645E0,-7.041043282E0,1.469927979E1,1.742395086E1
1.037611893E1,3.916612625E0,-8.388096809E0,2.902119637E0,9.701665884E0
1.038432739E1,1.561518669E0,-1.008970833E1,-1.065431213E1,1.475652133E1
1.039253608E1,-1.317073941E0,-9.238347054E0,-1.664966965E1,1.908646744E1
1.040074578E1,-7.607783318E0,-7.095979691E0,-1.860376740E1,2.131505234E1
1.040897835E1,-1.194651985E1,-4.366254330E0,-2.118519211E1,2.471023833E1
1.041718712E1,-2.173625755E1,3.332315445E0,-3.075164413E1,3.780519588E1
1.042539466E1,-2.952521133E1,1.858490372E1,-3.599258423E1,5.012587027E1
1.043360397E1,-7.868774414E0,3.636899185E1,-3.045373917E1,4.808379569E1
1.044181097E1,1.746781349E1,4.307059097E1,3.940139389E1,6.093168433E1
1.045002312E1,1.783295059E1,3.287504959E1,6.955924988E1,7.897640316E1
1.045826189E1,-5.724371433E0,1.996084404E1,7.277699947E0,2.200383238E1
1.046646924E1,-3.751693726E0,1.191732025E1,-1.254188633E1,1.770301219E1
1.047467678E1,-1.543056011E0,8.511398315E0,-1.702572823E1,1.909712923E1
1.048288601E1,1.970472217E0,4.583093643E0,-1.340718079E1,1.430524396E1
1.049109508E1,4.872468472E0,2.298884392E0,-4.929446697E0,7.302414888E0
1.049930381E1,6.435415745E0,1.272271156E0,1.994648099E0,6.856520309E0
1.050751158E1,4.824523449E0,4.241836548E0,3.742676258E0,7.434838894E0
1.051572116E1,1.556510568E0,9.164587975E0,-2.924963951E0,9.745142996E0
1.052393128E1,4.595742226E-1,1.284561443E1,-3.460925102E0,1.331161227E1
1.053213897E1,2.760878801E0,1.515216446E1,1.739706755E0,1.549958448E1
1.054034681E1,5.945606232E0,1.512172699E1,7.747702122E0,1.800121520E1
1.054855331E1,8.093049049E0,1.298755932E1,9.600132942E0,1.806479151E1
1.055675951E1,7.984496593E0,8.562761307E0,1.070494938E1,1.586407918E1
1.056496647E1,2.114435434E-1,1.038755417E1,7.262418747E0,1.267630530E1
1.057317428E1,-6.998299122E0,8.602684975E0,6.157813072E0,1.268467742E1
1.058138204E1,-8.780324936E0,3.070990562E0,9.741756439E0,1.346948060E1
1.058958904E1,-7.724364281E0,5.688534737E0,1.050170803E1,1.422361074E1
1.059779616E1,-7.112920284E-1,4.170859337E0,4.778908253E0,6.382786856E0
1.060600293E1,3.922399521E0,4.727649689E-2,6.009485722E-1,3.968449603E0
1.061421200E1,5.730786324E0,-4.700263023E0,2.481398582E0,7.816119453E0
1.062241674E1,8.102519035E0,-8.758112907E0,5.134746075E0,1.298926378E1
1.063062297E1,1.002728367E1,-1.084366417E1,4.586546898E0,1.546505360E1
1.063882974E1,1.116117096E1,-1.164447784E1,3.293673754E0,1.646249945E1
1.064703512E1,1.193654633E1,-1.226736355E1,2.480145931E0,1.729509961E1
1.065524843E1,1.181517220E1,-1.185625458E1,1.797744513E0,1.683451668E1
1.066345712E1,1.026304626E1,-1.058381271E1,-2.206128836E0,1.490685126E1
1.067166508E1,9.037261963E0,-1.104437637E1,-3.194985867E0,1.462389442E1
1.067987281E1,8.157657623E0,-1.088912106E1,-3.438458681E0,1.403365004E1
1.068808027E1,8.152353287E0,-1.080752754E1,-2.130069733E0,1.370404002E1
1.069628662E1,9.335783005E0,-1.108982658E1,-1.273990393E0,1.455211839E1
1.070452408E1,9.742160797E0,-1.125267887E1,-1.567230701E0,1.496625173E1
1.071273177E1,9.143106461E0,-1.177673244E1,-1.955934525E0,1.503707095E1
1.072093989E1,6.849426270E0,-1.214038181E1,-1.398014426E0,1.400920965E1
1.072914612E1,4.313480854E0,-1.179235077E1,-9.470793009E-1,1.259216474E1
1.073735274E1,1.358232975E0,-1.070820045E1,-1.520794868E0,1.090060415E1
1.074555908E1,-6.020967960E-1,-9.507636070E0,-1.666635990E0,9.671367004E0
1.075376693E1,-1.577616215E0,-9.044286728E0,-2.093377590E0,9.416486875E0
1.076197377E1,-2.336340666E0,-8.430667877E0,-1.939782143E0,8.960881838E0
1.077017981E1,-4.006604195E0,-6.294419765E0,2.479593754E-1,7.465526184E0
1.077839097E1,-5.167657852E0,-2.351920605E0,2.696620226E0,6.285537276E0
1.078659739E1,-6.840765953E0,3.358252525E0,3.785645962E0,8.509115947E0
1.079480266E1,-1.031338692E1,7.242712975E0,3.430255890E0,1.306099140E1
1.080300735E1,-1.786954880E1,2.087979126E1,-3.950513840E0,2.776496024E1
1.081121274E1,-8.752678871E0,5.375788879E1,1.673720932E1,5.697941884E1
1.081941770E1,3.405611420E1,6.197322845E1,1.854628754E1,7.310584615E1
1.082762435E1,1.154477119E1,6.095978546E1,1.300781536E1,6.339227434E1
1.083583012E1,-1.514672518E0,3.946717453E1,5.616183281E0,3.989352846E1
1.084403447E1,-7.218397856E-1,1.662291527E1,-1.251473188E0,1.668557910E1
1.085224008E1,1.675482035E0,4.473270416E0,-2.713570595E0,5.493710371E0
1.086044627E1,1.904432535E0,2.138681412E-1,-1.504802585E0,2.436602898E0
1.086865224E1,1.071777344E0,-1.155587673E0,-9.998834133E-1,1.866509144E0
1.087685720E1,4.822275639E-1,-1.181411743E-1,-1.085005522E0,1.193204820E0
1.088506324E1,-1.800806522E-1,9.585523605E-1,-1.151052475E0,1.508699264E0
1.089326958E1,-1.058412910E0,9.648962021E-1,-2.524679899E0,2.902631765E0
1.090147985E1,-2.230566740E0,-2.456550598E-1,-4.353639603E0,4.897953877E0
1.090968393E1,-3.122155666E0,-1.574099541E0,-5.002861500E0,6.103627492E0
1.091788577E1,-3.745849133E0,-3.677715778E0,-3.985558510E0,6.591028425E0
1.092608870E1,-4.903326035E0,-5.333540916E0,-3.428774834E0,8.015345393E0
1.093429293E1,-5.955644608E0,-6.564123154E0,-3.224213123E0,9.431487991E0
1.094250277E1,-6.600289822E0,-7.985196590E0,-3.864634752E0,1.105724161E1
1.095073897E1,-6.677716732E0,-8.857400894E0,-4.949567318E0,1.214675545E1
1.095894550E1,-5.312843323E0,-9.649212837E0,-7.826317787E0,1.351239663E1
1.096715135E1,-3.961646318E0,-1.071939850E1,-1.039669514E1,1.544964127E1
1.097535639E1,-2.705448151E0,-1.183535671E1,-1.193342781E1,1.702356653E1
1.098356170E1,-2.143687487E0,-1.217258835E1,-9.676446915E0,1.569716306E1
1.099176716E1,-1.756755829E0,-1.213546944E1,-9.306997299E0,1.539402508E1
1.099997039E1,-4.811291218E0,-1.225946236E1,-9.781076431E0,1.640464558E1
1.100817385E1,-7.803040028E0,-1.309226418E1,-9.043571472E0,1.772233054E1
1.101637727E1,-1.115058136E1,-1.336705208E1,-8.186630249E0,1.923627981E1
1.102458124E1,-1.215006351E1,-1.377752876E1,-6.262806892E0,1.940791314E1
1.103278474E1,-1.343891239E1,-1.381890392E1,-3.251403093E0,1.954835272E1
1.104098781E1,-1.352418804E1,-1.599972916E1,3.753962040E0,2.128349657E1
1.104919173E1,-7.390656948E0,-2.058461380E1,1.198598671E1,2.494016866E1
1.105739477E1,6.713717937E0,-1.765637207E1,1.552780247E1,2.445269173E1
1.106559850E1,7.453384876E0,-1.079732037E1,1.284592056E1,1.836171964E1
1.107380270E1,3.883284569E0,-6.632637978E0,1.208730125E1,1.432391836E1
1.108200643E1,1.515123963E0,-6.853128433E0,1.996235847E-1,7.021454231E0
1.109020916E1,-1.014120102E0,-7.216156006E0,-1.016263390E1,1.250521790E1
1.109841104E1,-4.466081619E0,-5.028234005E0,-1.454926872E1,1.602841984E1
1.110661866E1,-9.377860069E0,-1.313652992E0,-1.661970901E1,1.912811207E1
1.111482154E1,-1.722896767E1,5.261229515E0,-3.330536652E1,3.786509345E1
1.112302389E1,-1.126261902E1,3.126954269E1,-3.921799088E1,5.140701991E1
1.113125750E1,-1.718791127E0,3.401528931E1,-2.415320587E1,4.175370048E1
1.113945789E1,1.815399170E1,2.746114349E1,3.772964859E1,5.007203011E1
1.114766023E1,1.312007523E1,1.413677597E1,4.084720612E1,4.517166209E1
1.115586396E1,-7.088036537E0,1.398370647E1,4.466140747E0,1.630124909E1
1.116406823E1,-7.631623745E0,1.174527645E1,-1.055787563E1,1.754029469E1
1.117227346E1,-1.151025772E0,8.231980324E0,-1.493622398E1,1.709330709E1
1.118047631E1,2.508599281E0,5.670454979E0,-8.325559616E0,1.038085126E1
1.118867893E1,3.035384178E0,4.841178894E0,-1.199050546E0,5.838517997E0
1.119691227E1,6.276928782E-1,5.365041733E0,-7.664375305E-1,5.455739879E0
1.120511616E1,-1.276047230E0,6.727146149E0,-2.817035198E0,7.403950239E0
1.121331885E1,-1.063522696E0,8.913420677E0,-1.076210260E0,9.040927896E0
1.122152016E1,9.716536403E-1,1.084596443E1,5.343722105E-1,1.090250471E1
1.122972254E1,2.189056158E0,1.225949860E1,1.253044248E0,1.251628510E1
1.123792516E1,3.150074005E0,1.258603287E1,1.115620375E0,1.302212726E1
1.124612927E1,5.307769299E0,1.233637810E1,3.134417772E0,1.379069303E1
1.125433412E1,7.738112926E0,1.049311352E1,7.437280655E0,1.500989562E1
1.126253827E1,9.845225334E0,6.004904747E0,7.962172031E0,1.401369068E1
1.127074358E1,8.191177845E-1,6.745526314E0,1.058965588E1,1.258228480E1
1.127894939E1,-4.861577988E0,5.687297821E0,9.338056564E0,1.196576773E1
1.128715539E1,-4.219196796E0,5.393652916E0,9.080487251E0,1.137314214E1
1.129535954E1,-2.413389206E0,7.578210831E0,6.267248154E0,1.012581484E1
1.130356270E1,-3.054115772E-1,6.040863991E0,3.177335024E0,6.832332826E0
1.131176681E1,1.828286529E0,2.730035782E-1,2.596785069E0,3.187546906E0
1.131997035E1,3.372813463E0,-6.148428917E0,5.067595005E0,8.652142390E0
1.132817212E1,5.202880383E0,-1.035241318E1,6.215739727E0,1.314830191E1
1.133637350E1,8.357887268E0,-1.176338100E1,3.453965187E0,1.483783299E1
1.134457708E1,1.120418835E1,-1.149559975E1,2.369557858E0,1.622644306E1
1.135278177E1,1.125016499E1,-1.115249538E1,1.449201584E0,1.590737410E1
1.136098627E1,1.103202057E1,-1.159712029E1,3.046253622E-1,1.600910595E1
1.136918966E1,1.024075317E1,-1.153896046E1,-5.384542346E-1,1.543731087E1
1.137739262E1,9.125638962E0,-1.100816059E1,-2.360340595E0,1.449234604E1
1.138559581E1,8.522158623E0,-1.117784691E1,-2.775575876E0,1.432743070E1
1.139380042E1,8.693632126E0,-1.158874798E1,-2.609894514E0,1.472038955E1
1.140200654E1,9.252996445E0,-1.131641579E1,-8.468561769E-1,1.464228038E1
1.141021150E1,8.272268295E0,-1.113477898E1,2.031649351E0,1.401931969E1
1.141841570E1,6.219656467E0,-1.065231991E1,2.449326992E0,1.257597904E1
1.142661923E1,4.543060303E0,-1.009781265E1,-7.083799243E-1,1.109536026E1
1.143482316E1,2.367982388E0,-8.880555153E0,-3.448323250E0,9.816442005E0
1.144305892E1,-6.830811501E-1,-7.431366920E0,-3.871116161E0,8.406982485E0
1.145126416E1,-2.180482864E0,-6.637014389E0,-2.605766773E0,7.456171001E0
1.145946819E1,-3.098435640E0,-5.941165924E0,-1.332521439E0,6.831791078E0
1.146767481E1,-4.160464287E0,-3.620656490E0,2.546833277E0,6.074946604E0
1.147588162E1,-3.249875546E0,2.081031799E-1,4.724873543E0,5.738416854E0
1.148408823E1,-4.920338154E0,4.467865944E0,3.722757816E0,7.617773914E0
1.149229427E1,-8.468673706E0,8.633523941E0,-8.218085766E-1,1.212153205E1
1.150049719E1,-1.540049934E1,2.115256500E1,-2.440643787E0,2.627856785E1
1.150870104E1,-7.312772274E-1,5.258441925E1,1.836674118E1,5.570451594E1
1.151690562E1,1.885232735E1,5.671384048E1,1.864688492E1,6.260651936E1
1.152511193E1,8.601233482E0,5.308554840E1,1.315025330E1,5.536231415E1
1.153331662E1,-1.697429180E0,3.829421234E1,8.093488693E0,3.917693867E1
1.154152135E1,-3.959038496E0,1.874427414E1,-8.100223541E-1,1.917492986E1
1.154972646E1,1.811685562E-1,5.158490181E0,-3.061469555E0,6.001286431E0
1.155793316E1,1.448704243E0,3.759431839E-1,-1.853418231E0,2.382275467E0
1.156614089E1,6.087777615E-1,-1.125656128E0,-9.232897758E-1,1.578029180E0
1.157434762E1,-2.630577087E-1,-2.965517044E-1,-1.047424078E0,1.119928333E0
1.158255477E1,-3.025635481E-1,7.518539429E-1,-1.075598717E0,1.346752261E0
1.159076150E1,-8.736824989E-1,1.527566910E-1,-2.668274164E0,2.811821959E0
1.159896819E1,-1.798470378E0,-1.524347782E0,-4.352763653E0,4.950220528E0
1.160717346E1,-2.391382933E0,-3.332448006E0,-4.749973297E0,6.275840052E0
1.161537881E1,-3.058792114E0,-4.787468433E0,-5.058002949E0,7.606540411E0
1.162358496E1,-4.063714981E0,-5.906772614E0,-5.398154259E0,8.974620413E0
1.163179019E1,-4.628159046E0,-7.019012451E0,-5.106087208E0,9.836590798E0
1.163999604E1,-4.880886078E0,-8.492466927E0,-4.877804756E0,1.094248704E1
1.164820039E1,-4.530482292E0,-9.056403160E0,-7.170078278E0,1.240780925E1
1.165640446E1,-4.205396175E0,-9.318016052E0,-9.776500702E0,1.414534362E1
1.166460958E1,-3.974121332E0,-1.030658340E1,-1.134970093E1,1.583777172E1
1.167281669E1,-3.879085064E0,-1.114778709E1,-1.000030327E1,1.547018175E1
1.168102250E1,-3.791601181E0,-1.147597122E1,-8.432540894E0,1.473709269E1
1.168925769E1,-4.267359257E0,-1.130274868E1,-9.019996643E0,1.507722860E1
1.169746177E1,-8.755752563E0,-1.207510948E1,-8.017684937E0,1.693383429E1
1.170566639E1,-1.133691597E1,-1.401698780E1,-8.221428871E0,1.981397243E1
1.171387296E1,-1.278086567E1,-1.460481644E1,-5.715597630E0,2.023163974E1
1.172208019E1,-1.221148491E1,-1.586198997E1,-3.842109442E0,2.038344658E1
1.173028508E1,-1.125353336E1,-1.526004219E1,-5.552313328E-1,1.896890041E1
1.173848869E1,-1.114842701E1,-1.572013092E1,5.682436943E0,2.009228784E1
1.174669419E1,-3.227607727E0,-1.768764877E1,1.246560001E1,2.187833528E1
1.175489996E1,5.618134975E0,-1.385431480E1,1.340218830E1,2.007795135E1
1.176310600E1,6.033416271E0,-9.259798050E0,1.166827965E1,1.607155007E1
1.177131100E1,4.686851501E0,-8.697318077E0,4.972974300E0,1.106075911E1
1.177951592E1,1.709467173E0,-7.772269249E0,-3.003704309E0,8.506038259E0
1.178772000E1,-1.772791147E0,-6.641627312E0,-9.918192863E0,1.206749980E1
1.179592346E1,-5.761693954E0,-4.089766979E0,-1.310092545E1,1.488480966E1
1.180412739E1,-1.144180393E1,-3.092775345E-1,-1.627368927E1,1.989581595E1
1.181233266E1,-1.784530449E1,7.207910538E0,-3.214960480E1,3.747006746E1
1.182053866E1,-1.125260544E1,2.411896896E1,-3.258339691E1,4.207164778E1
1.182874531E1,-8.531839848E-1,2.974892807E1,-2.242070198E1,3.726143478E1
1.183694900E1,1.657465363E1,2.620010757E1,1.950267601E1,3.662675458E1
1.184515527E1,1.179237843E1,2.104895020E1,4.407678223E1,5.024819623E1
1.185336265E1,-5.489387512E0,1.512197781E1,7.286351204E0,1.766064840E1
1.186156885E1,-5.386044979E0,1.304676819E1,-8.636343002E0,1.654732792E1
1.186977577E1,-1.391600013E0,9.960954666E0,-1.374742889E1,1.703375970E1
1.187798331E1,1.470027924E0,7.473783493E0,-9.089976311E0,1.185943047E1
1.188619089E1,6.385436058E-1,6.020173073E0,-2.872525692E0,6.700867527E0
1.189439800E1,9.116433263E-1,5.855557442E0,-2.892732620E-1,5.933154770E0
1.190260504E1,-1.673996449E-2,7.846679688E0,1.449091077E0,7.979381385E0
1.191081108E1,1.599759817E0,9.875794411E0,1.379798532E0,1.009922723E1
1.191901831E1,2.434888840E0,1.141197205E1,-4.066665173E-1,1.167592255E1
1.192722515E1,3.605185509E0,1.227863216E1,-7.783814073E-1,1.282061028E1
1.193546165E1,5.766275406E0,1.225167656E1,1.739561915E0,1.365209091E1
1.194366931E1,8.532490730E0,1.094580173E1,6.702073574E0,1.541206553E1
1.195187600E1,1.203165245E1,7.167650223E0,1.045401287E1,1.747633416E1
1.196008242E1,8.537542343E0,4.604112625E0,1.304598331E1,1.625684972E1
1.196828892E1,-7.640186548E-1,7.604934692E0,8.432880402E0,1.138122261E1
1.197649588E1,-4.314939499E0,4.507806778E0,8.218024254E0,1.031866985E1
1.198470319E1,-4.819368362E0,3.689215660E0,4.558649063E0,7.590645880E0
1.199291142E1,-3.242805958E0,4.925234795E0,4.750258923E0,7.572231381E0
1.200111835E1,2.492272377E0,1.932127953E0,5.913097382E0,6.701437209E0
1.200932358E1,3.490633726E0,-2.567687511E0,4.457637310E0,6.216757463E0
1.201753038E1,3.787274599E0,-6.433151722E0,4.191537857E0,8.561418082E0
1.202573777E1,5.238427639E0,-9.225542068E0,4.351886749E0,1.146693808E1
1.203394408E1,8.769573212E0,-1.114378834E1,4.252163887E0,1.480440240E1
1.204215223E1,1.103648186E1,-1.169696617E1,2.249999762E0,1.623839427E1
1.205035977E1,1.161866379E1,-1.131682968E1,1.564773917E-1,1.622000208E1
1.205856654E1,1.080819035E1,-1.100276184E1,-1.542232156E0,1.550020086E1
1.206677292E1,9.382456779E0,-1.066236305E1,-3.663477659E0,1.466756795E1
1.207498058E1,8.867059708E0,-1.139072514E1,-3.124694824E0,1.476946461E1
1.208318712E1,6.708238602E0,-9.940510750E0,-1.997177124E0,1.215742306E1
1.209139292E1,8.171876907E0,-1.138801193E1,-2.407037497E0,1.422182188E1
1.209959785E1,8.926301956E0,-1.183638287E1,2.719340622E-1,1.482743316E1
1.210780238E1,8.099723816E0,-1.223971272E1,2.567996264E0,1.490002342E1
1.211600808E1,5.613791466E0,-1.196639061E1,2.407406330E0,1.343520614E1
1.212421362E1,3.600284338E0,-1.122203445E1,-5.922679901E-1,1.180029178E1
1.213242096E1,1.054612637E0,-1.011857891E1,-1.923490167E0,1.035363035E1
1.214062877E1,-7.063705921E-1,-9.076457977E0,-2.761631250E0,9.513551177E0
1.214883535E1,-1.358681202E0,-8.103869438E0,-3.862866879E0,9.079672626E0
1.215704104E1,-1.801863670E0,-7.427120209E0,-4.259811401E0,8.749561158E0
1.216524850E1,-2.937118769E0,-5.654033661E0,-4.232842922E0,7.649295556E0
1.217345508E1,-3.524812937E0,-2.710806847E0,-2.973507404E0,5.349254741E0
1.218169231E1,-5.418208122E0,3.713845253E0,5.174140930E0,8.361899317E0
1.218989996E1,-8.051367760E0,9.776017189E0,4.606365204E0,1.347641033E1
1.219810708E1,-1.479949379E1,2.150798416E1,3.919413805E0,2.640038264E1
1.220631519E1,-1.072148204E0,5.658884430E1,1.480591297E1,5.850352006E1
1.221452354E1,1.613009071E1,6.486038971E1,1.652037811E1,6.884746090E1
1.222273238E1,1.170284653E1,5.961376190E1,1.345793152E1,6.222437742E1
1.223093900E1,-2.084624767E0,3.949354935E1,6.122587204E0,4.001964736E1
1.223914712E1,-5.667893410E0,1.859548950E1,-3.938529491E-1,1.944408305E1
1.224735292E1,-2.067366600E0,4.769199371E0,-2.208847761E0,5.647855853E0
1.225555915E1,5.176618099E-1,-8.310260773E-1,-4.341101646E-1,1.070994736E0
1.226376411E1,9.236049652E-1,-2.674297333E0,-1.677598953E-1,2.834264585E0
1.227197000E1,7.609546185E-1,-2.775562763E0,-4.601371288E-1,2.914537144E0
1.228017531E1,7.765367031E-1,-1.196742535E0,-2.925956249E-1,1.456301530E0
1.228837873E1,-4.767866135E-1,-5.266723633E-1,-1.337536812E0,1.514501230E0
1.229659038E1,-2.243103504E0,-1.091685772E0,-3.134607315E0,4.006127079E0
1.230479411E1,-3.410548210E0,-2.397480011E0,-3.614086628E0,5.517369994E0
1.231299735E1,-4.329751015E0,-3.567229271E0,-4.037495136E0,6.911818538E0
1.232120054E1,-5.463232040E0,-4.897016525E0,-4.190408707E0,8.449094644E0
1.232940488E1,-6.529349327E0,-6.496127129E0,-2.955045700E0,9.672867486E0
1.233760908E1,-6.953369141E0,-8.001909256E0,-3.117473602E0,1.104982062E1
1.234581384E1,-5.710757732E0,-9.205375671E0,-5.439568043E0,1.212190561E1
1.235401942E1,-4.625287056E0,-1.005430031E1,-9.232734680E0,1.441268971E1
1.236222500E1,-3.297536373E0,-1.069261551E1,-1.176813793E1,1.623868353E1
1.237042984E1,-2.373493195E0,-1.149237633E1,-1.244870853E1,1.710784989E1
1.237864100E1,-1.305826545E0,-1.186737347E1,-1.035144043E1,1.580164722E1
1.238684735E1,-1.772614956E0,-1.155006218E1,-9.731559753E0,1.520688513E1
1.239505373E1,-5.033840656E0,-1.202682686E1,-8.458193779E0,1.554107969E1
1.240325934E1,-8.365753174E0,-1.162654305E1,-7.269598007E0,1.606267053E1
1.241146685E1,-1.095814991E1,-1.173326206E1,-6.306431770E0,1.724881357E1
1.241968027E1,-1.365362167E1,-1.212822151E1,-4.481618881E0,1.880425616E1
1.242791796E1,-1.521937370E1,-1.233220959E1,-2.337958813E0,1.972761467E1
1.243612534E1,-1.603517151E1,-1.430887032E1,1.889352322E0,2.157406191E1
1.244433319E1,-1.067961788E1,-1.709960365E1,8.387111664E0,2.183562056E1
1.245254050E1,3.925490379E0,-1.533338737E1,1.329585743E1,2.067128607E1
1.246074765E1,5.509569168E0,-8.054811478E0,1.663982010E1,1.929038500E1
1.246895496E1,3.847054005E0,-7.764481068E0,1.702497482E1,1.910331800E1
1.247716346E1,2.970598936E0,-8.505829811E0,2.397017956E0,9.323051748E0
1.248537092E1,-1.115828037E0,-8.336541176E0,-9.012071609E0,1.232722295E1
1.249357769E1,-2.833465099E0,-6.052266121E0,-1.438842964E1,1.586459446E1
1.250178661E1,-7.912716389E0,-3.605666637E0,-1.690362740E1,1.900906446E1
1.250999531E1,-1.253144550E1,-8.698663712E-1,-2.291468811E1,2.613191009E1
1.251820258E1,-1.232401752E1,7.618417740E0,-3.578856277E1,3.861014015E1
1.252640934E1,-8.174800873E0,2.187428093E1,-3.343711853E1,4.078421792E1
1.253461442E1,2.552174568E0,2.527362061E1,-2.002855301E1,3.234829871E1
1.254281950E1,1.114478016E1,2.441973114E1,3.342055511E1,4.286563773E1
1.255102488E1,8.383244514E0,1.536801815E1,5.238037872E1,5.522824319E1
1.255923023E1,2.486560583E0,8.627146721E0,-2.113454342E-1,8.980830194E0
1.256743619E1,-2.813696861E0,1.246104908E1,-1.076157665E1,1.670347767E1
1.257564188E1,-1.746109486E0,1.349643707E1,-1.409611893E1,1.959344995E1
1.258384761E1,-6.752384305E-1,1.085300446E1,-9.827449799E0,1.465682169E1
1.259205296E1,1.385670781E0,8.919752121E0,-3.482740402E0,9.675305790E0
1.260025869E1,1.681544065E0,9.474598885E0,8.792492151E-1,9.662747728E0
1.260846661E1,1.531742811E0,1.042645168E1,1.745054722E0,1.068187000E1
1.261667242E1,1.974522114E0,1.218185711E1,2.867851257E-1,1.234417376E1
1.262488108E1,2.460158110E0,1.310816765E1,2.325315475E-1,1.333905948E1
1.263308896E1,4.491753578E0,1.288022614E1,2.871909142E0,1.394001211E1
1.264129508E1,6.357666016E0,1.223224354E1,5.186429501E0,1.472911233E1
1.264950373E1,9.215004921E0,1.029151154E1,7.280019760E0,1.561506366E1
1.265771115E1,9.824092865E0,6.539672852E0,1.044930363E1,1.576286991E1
1.266591907E1,2.129375458E0,5.290761948E0,1.033699226E1,1.180592270E1
1.267415846E1,-5.298784256E0,6.248478889E0,8.716176033E0,1.196212053E1
1.268236484E1,-4.428869724E0,4.452777863E0,6.028892517E0,8.705725858E0
1.269057184E1,-3.814398050E0,4.450010300E0,2.973358154E0,6.572144465E0
1.269878111E1,9.302507639E-1,4.668884277E0,4.219001770E0,6.361118048E0
1.270699088E1,5.527934074E0,9.895973206E-1,6.669767380E0,8.719125810E0
1.271520015E1,6.647687912E0,-3.960697651E0,4.505223751E0,8.954100821E0
1.272340911E1,5.007299900E0,-6.357170582E0,4.448682785E0,9.234578963E0
1.273161880E1,6.382436275E0,-7.393754959E0,3.814464808E0,1.048585938E1
1.273982838E1,8.955104828E0,-9.707991600E0,2.781212330E0,1.349719028E1
1.274804088E1,1.170264149E1,-1.110945225E1,2.681296349E0,1.635729492E1
1.275624969E1,1.170939922E1,-1.083281517E1,-6.619834900E-1,1.596552964E1
1.276445877E1,1.046541882E1,-1.104173470E1,-4.061450958E0,1.574611952E1
1.277266607E1,9.461727142E0,-1.138371277E1,-3.755794764E0,1.527151568E1
1.278087346E1,8.718404770E0,-1.159161186E1,-3.360028744E0,1.488844654E1
1.278908157E1,7.878251553E0,-1.134495735E1,-2.508303881E0,1.403803737E1
1.279728996E1,8.855396271E0,-1.172822952E1,-1.893552065E0,1.481738676E1
1.280549784E1,9.496093750E0,-1.209525967E1,-8.568493724E-1,1.540147051E1
1.281370565E1,8.669735909E0,-1.280036545E1,1.010732770E0,1.549307126E1
1.282191388E1,6.369858742E0,-1.278169155E1,5.529958010E-1,1.429169492E1
1.283012273E1,4.402977943E0,-1.242377090E1,-9.691218138E-1,1.321648574E1
1.283833046E1,2.020813942E0,-1.113076496E1,-1.075985432E0,1.136377412E1
1.284653892E1,2.318940163E-1,-9.464941978E0,-1.737444639E0,9.625882576E0
1.285474738E1,-1.328017950E0,-8.303645134E0,-2.877984762E0,8.888022867E0
1.286295330E1,-2.372166634E0,-7.047873020E0,-3.097730398E0,8.055781915E0
1.287116534E1,-3.690966845E0,-5.709445000E0,-2.056647778E0,7.102872555E0
1.287937296E1,-4.801304817E0,-2.447274208E0,-3.655670881E-1,5.401418174E0
1.288758000E1,-6.453264236E0,2.287488937E0,6.946967602E0,9.753849691E0
1.289578696E1,-8.963524818E0,8.056331635E0,5.522995949E0,1.325717696E1
1.290399184E1,-1.535758972E1,1.811765671E1,2.831048250E0,2.391902759E1
1.291219823E1,-6.484706879E0,5.509533310E1,1.665691566E1,5.792236176E1
1.292043542E1,2.063015747E1,6.266690063E1,2.008136368E1,6.896379485E1
1.292864173E1,1.149240589E1,6.137579346E1,1.281413460E1,6.374374841E1
1.293684804E1,7.154703140E-1,4.209497452E1,6.146486282E0,4.254736268E1
1.294505461E1,-3.833756685E0,2.043014908E1,-1.692950130E0,2.085556908E1
1.295326750E1,-4.237055779E-3,6.246431351E0,-3.666089535E0,7.242798841E0
1.296147369E1,2.786129475E0,-1.018257141E-1,-2.307309628E0,3.618917468E0
1.296967969E1,2.384605885E0,-1.613371849E0,-1.261007786E0,3.143159968E0
1.297788519E1,1.862033367E0,-8.661174774E-1,-8.344984055E-1,2.216690175E0
1.298609134E1,1.990429163E0,4.594888687E-1,-4.982237816E-1,2.102656703E0
1.299429800E1,1.305478454E0,6.845703125E-1,-1.572050571E0,2.155053017E0
1.300250404E1,-2.615411282E-1,-5.605192184E-1,-3.920287609E0,3.968783251E0
1.301070911E1,-1.785246849E0,-2.263218403E0,-5.822093010E0,6.496616879E0
1.301891423E1,-3.085305214E0,-3.678372860E0,-6.009946346E0,7.692138210E0
1.302711954E1,-4.418981075E0,-4.900787354E0,-5.884640694E0,8.841612213E0
1.303532554E1,-5.293179989E0,-5.954858780E0,-5.543283463E0,9.705982126E0
1.304353211E1,-6.633893013E0,-7.388706207E0,-4.673624992E0,1.097471123E1
1.305173919E1,-7.248894691E0,-8.562263489E0,-4.279674053E0,1.200726615E1
1.305994454E1,-6.849730968E0,-9.217844009E0,-7.362417221E0,1.364157798E1
1.306815161E1,-6.074873447E0,-9.742761612E0,-9.799057961E0,1.509460262E1
1.307636342E1,-4.534518242E0,-1.064455605E1,-9.814929962E0,1.517238542E1
1.308457211E1,-3.511366367E0,-1.091946125E1,-7.443950176E0,1.367394318E1
1.309278061E1,-1.775502920E0,-1.098169518E1,-6.823713303E0,1.305040623E1
1.310098873E1,-4.568442345E0,-1.237119293E1,-7.704296589E0,1.527328602E1
1.310919653E1,-7.302049637E0,-1.389314461E1,-9.081574440E0,1.813323993E1
1.311741057E1,-9.302396774E0,-1.459681702E1,-9.025291443E0,1.952069513E1
1.312561784E1,-1.098675632E1,-1.568193245E1,-8.139569283E0,2.080587436E1
1.313382573E1,-1.183643436E1,-1.407864189E1,-5.222952366E0,1.912037048E1
1.314203130E1,-1.099921894E1,-1.448499870E1,-3.525467396E0,1.852638457E1
1.315023600E1,-1.156248856E1,-1.660783768E1,5.031208038E0,2.085244514E1
1.315844130E1,-1.512681484E0,-1.919308090E1,1.473072433E1,2.424163359E1
1.316667850E1,8.776294708E0,-1.291837120E1,1.655919075E1,2.276212779E1
1.317488457E1,7.708187103E0,-9.111652374E0,1.170673943E1,1.671783794E1
1.318308988E1,4.484390259E0,-8.595896721E0,3.940402508E0,1.046546551E1
1.319129588E1,1.365836978E0,-8.125168800E0,-3.575292587E0,8.981458443E0
1.319950315E1,-2.411641836E0,-5.911348343E0,-1.074676514E1,1.250012066E1
1.320770826E1,-6.243720055E0,-3.904440403E0,-1.400512123E1,1.582315126E1
1.321591303E1,-1.130434799E1,8.099813461E-1,-1.862021446E1,2.179809028E1
1.322411730E1,-1.602845383E1,7.781970024E0,-3.337503052E1,3.783335898E1
1.323232053E1,-1.239263344E1,2.407434464E1,-3.491366959E1,4.418275407E1
1.324053023E1,7.893749475E-1,3.266339493E1,-2.448384285E1,4.082865466E1
1.324873492E1,1.849310684E1,2.950159264E1,2.598970795E1,4.344886521E1
1.325693996E1,1.127569580E1,1.630112076E1,5.214082336E1,5.578111970E1
1.326514546E1,-1.006002045E1,1.796831131E1,1.059885263E0,2.062007710E1
1.327335134E1,-3.677503824E0,1.401546764E1,-1.259906197E1,1.920139917E1
1.328155876E1,5.308831930E-1,9.655336380E0,-1.422464371E1,1.720022808E1
1.328976388E1,1.723373890E0,6.665301323E0,-7.787574768E0,1.039435328E1
1.329796853E1,1.816475391E0,4.049598694E0,-9.591373205E-1,4.540790331E0
1.330617434E1,-1.152167082E0,5.529259682E0,-1.386444092E0,5.815705360E0
1.331437903E1,-1.850794792E0,9.451973915E0,-1.612549305E0,9.765529556E0
1.332258511E1,1.172384381E0,1.163350677E1,-6.436710358E-1,1.171013567E1
1.333079215E1,3.482731819E0,1.352599907E1,-8.425868750E-1,1.399257033E1
1.333900042E1,5.263842583E0,1.437432766E1,1.877514124E-1,1.530897074E1
1.334720861E1,7.175648689E0,1.390733528E1,3.298823833E0,1.599331571E1
1.335541584E1,9.031373024E0,1.223456669E1,7.269229889E0,1.685502963E1
1.336362723E1,1.033226585E1,8.335637093E0,1.185501671E1,1.779831409E1
1.337183296E1,7.229034424E0,5.281654358E0,1.018522453E1,1.356073782E1
1.338003915E1,-2.898992538E0,5.866690636E0,8.495360374E0,1.072349592E1
1.338824661E1,-5.499112129E0,4.293730736E0,6.987546921E0,9.874318701E0
1.339645369E1,-5.804896832E0,3.379966736E0,3.440747976E0,7.547168277E0
1.340466734E1,-3.989985943E0,5.045840263E0,3.896374226E0,7.520786122E0
1.341290561E1,1.945779800E0,2.940208435E0,6.735497475E0,7.602487153E0
1.342111380E1,5.076262474E0,-1.538166046E0,5.012089252E0,7.297632093E0
1.342932307E1,6.182991982E0,-6.159105301E0,5.239609241E0,1.017926682E1
1.343753265E1,7.132956505E0,-9.576611519E0,4.298194885E0,1.269114006E1
1.344573938E1,9.220001221E0,-1.124173355E1,2.980876207E0,1.484151673E1
1.345394534E1,1.164582920E1,-1.187469864E1,2.164683580E0,1.677258658E1
1.346218773E1,1.181161213E1,-1.149582005E1,1.302079558E0,1.653370711E1
1.347039299E1,1.018485260E1,-1.049658394E1,-3.040490389E0,1.493834257E1
1.347859846E1,9.242980957E0,-1.059826469E1,-2.676756859E0,1.431505986E1
1.348680503E1,8.269820213E0,-1.072022820E1,-2.250042200E0,1.372501034E1
1.349501161E1,7.695966244E0,-1.110726929E1,-2.899959564E0,1.382060393E1
1.350321742E1,7.512555599E0,-1.130545235E1,-3.028992176E0,1.390778696E1
1.351142292E1,7.609563351E0,-1.157156372E1,-1.940818310E0,1.398475302E1
1.351962930E1,7.626829147E0,-1.175314331E1,-5.152912736E-1,1.402035754E1
1.352783584E1,6.038592339E0,-1.233630371E1,1.552252531E0,1.382239034E1
1.353604273E1,4.814562798E0,-1.147255135E1,-3.850480914E-1,1.244779946E1
1.354424972E1,2.743689537E0,-1.151471710E1,-1.491335750E0,1.193065902E1
1.355245826E1,9.876160622E-1,-1.030820179E1,-2.469339848E0,1.064575262E1
1.356066622E1,-4.258806705E-1,-9.294178009E0,-3.399551392E0,9.905557474E0
1.356887780E1,-1.329194784E0,-8.260750771E0,-4.049411297E0,9.295401762E0
1.357708496E1,-2.279026747E0,-6.902771950E0,-4.505798817E0,8.552452659E0
1.358529196E1,-3.272995234E0,-5.183506012E0,-3.803579807E0,7.214461291E0
1.359349915E1,-4.932971954E0,2.386970520E-1,1.169976711E0,5.075434375E0
1.360170572E1,-8.135127068E0,6.694209099E0,6.719582558E0,1.249582001E1
1.360991857E1,-1.338492584E1,1.565004349E1,3.138230324E0,2.083095270E1
1.361812442E1,-1.742969513E1,3.833612061E1,1.107103252E1,4.354331380E1
1.362633126E1,2.267247963E1,6.144223022E1,1.934900284E1,6.829035729E1
1.363453892E1,1.733892632E1,6.880992126E1,1.495835686E1,7.252031488E1
1.364274569E1,2.707970619E0,5.197754669E1,7.883906364E0,5.264175571E1
1.365095196E1,-4.437290192E0,2.607668114E1,-5.909452438E-1,2.645811897E1
1.365919111E1,-5.755708218E-1,9.851809502E0,-1.934750319E0,1.005647508E1
1.366739815E1,2.283163548E0,2.137127876E0,-2.773110867E-1,3.139594366E0
